trials_2.thisRepN,trials_2.thisTrialN,trials_2.thisN,trials_2.thisIndex,trials.thisTrialN,trials.stepSize,trials.intensity,fixation.started,grating.started,key_resp.started,fixation.stopped,grating.stopped,corrAns,tilt,key_resp.corr,trials.response,key_resp.rt,participant,session,date,expName,psychopyVersion,frameRate,
0,0,0,0,0,2,10.0,35.768329699996684,36.32093650000024,36.32093650000024,36.33845740000106,36.62141420000262,right,10.0,1,1,16.093037300001015,677501,001,2023-09-07_11h09.48.820,adaptive_staircase,2023.1.3,60.045995233065234,
0,0,0,0,1,2,8.0,52.43876170000294,52.93827109999984,52.93827109999984,52.93827109999984,53.23758909999742,left,-8.0,1,1,1.500264900001639,677501,001,2023-09-07_11h09.48.820,adaptive_staircase,2023.1.3,60.045995233065234,
0,0,0,0,2,1,6.0,54.46980910000275,54.96940390000236,54.96940390000236,54.96940390000236,55.26900719999685,left,-6.0,0,0,1.9883763999969233,677501,001,2023-09-07_11h09.48.820,adaptive_staircase,2023.1.3,60.045995233065234,
0,0,0,0,3,1,7.0,56.98430999999982,57.483698600000935,57.483698600000935,57.483698600000935,57.78346060000331,right,7.0,1,1,1.40193310000177,677501,001,2023-09-07_11h09.48.820,adaptive_staircase,2023.1.3,60.045995233065234,
0,0,0,0,4,1,7.0,58.91572830000223,59.41551479999907,59.41551479999907,59.41551479999907,59.715264400001615,left,-7.0,0,0,2.33413969999674,677501,001,2023-09-07_11h09.48.820,adaptive_staircase,2023.1.3,60.045995233065234,
0,0,0,0,5,1,8.0,61.780072100002144,62.279414099997666,62.279414099997666,62.279414099997666,62.57899570000154,right,8.0,0,0,1.611368499994569,677501,001,2023-09-07_11h09.48.820,adaptive_staircase,2023.1.3,60.045995233065234,
0,0,0,0,6,1,9.0,63.91105029999744,64.41061179999815,64.41061179999815,64.41061179999815,64.71102239999891,right,9.0,1,1,1.4085208999968017,677501,001,2023-09-07_11h09.48.820,adaptive_staircase,2023.1.3,60.045995233065234,
0,0,0,0,7,1,9.0,65.8425442000007,66.3419911000019,66.3419911000019,66.3419911000019,66.64174259999709,right,9.0,1,1,1.1508714000010514,677501,001,2023-09-07_11h09.48.820,adaptive_staircase,2023.1.3,60.045995233065234,
0,0,0,0,8,1,9.0,67.52424440000323,68.0070635000011,68.0070635000011,68.0240174999999,68.30683190000127,left,-9.0,0,0,0.7851593000013963,677501,001,2023-09-07_11h09.48.820,adaptive_staircase,2023.1.3,60.045995233065234,
0,0,0,0,9,1,10.0,68.82325600000331,69.32244399999763,69.32244399999763,69.33950390000246,69.62211229999957,right,10.0,1,1,0.3905008999936399,677501,001,2023-09-07_11h09.48.820,adaptive_staircase,2023.1.3,60.045995233065234,
0,0,0,0,10,1,10.0,69.73908200000005,70.23834129999886,70.23834129999886,70.23834129999886,,right,10.0,1,1,0.018578999995952472,677501,001,2023-09-07_11h09.48.820,adaptive_staircase,2023.1.3,60.045995233065234,
0,0,0,0,11,1,10.0,70.28822619999846,70.7877806999968,70.7877806999968,70.7877806999968,71.08780359999946,left,-10.0,0,0,0.2904443999941577,677501,001,2023-09-07_11h09.48.820,adaptive_staircase,2023.1.3,60.045995233065234,
0,0,0,0,12,1,11.0,71.10449389999849,71.60416719999921,71.60416719999921,71.60416719999921,,left,-11.0,0,0,0.21314530000381637,677501,001,2023-09-07_11h09.48.820,adaptive_staircase,2023.1.3,60.045995233065234,
0,0,0,0,13,1,12.0,71.83713330000319,72.33649259999947,72.33649259999947,72.35299859999941,,right,12.0,1,1,0.13156879999587545,677501,001,2023-09-07_11h09.48.820,adaptive_staircase,2023.1.3,60.045995233065234,
0,0,0,0,14,1,12.0,72.48614380000072,72.98596800000087,72.98596800000087,72.98596800000087,,right,12.0,1,1,0.17176969999854919,677501,001,2023-09-07_11h09.48.820,adaptive_staircase,2023.1.3,60.045995233065234,
0,0,0,0,15,1,12.0,73.18608040000254,73.68517509999947,73.68517509999947,73.7019896999991,73.9847501999975,left,-12.0,0,0,0.7977561000006972,677501,001,2023-09-07_11h09.48.820,adaptive_staircase,2023.1.3,60.045995233065234,
0,0,0,0,16,1,13.0,74.5008966000023,75.00053939999634,75.00053939999634,75.00053939999634,,left,-13.0,0,0,0.17066160000103991,677501,001,2023-09-07_11h09.48.820,adaptive_staircase,2023.1.3,60.045995233065234,
0,0,0,0,17,1,14.0,75.20019799999864,75.69982560000062,75.69982560000062,75.69982560000062,,right,14.0,1,1,0.13286040000093635,677501,001,2023-09-07_11h09.48.820,adaptive_staircase,2023.1.3,60.045995233065234,
0,0,0,0,18,1,14.0,75.84976530000131,76.34934790000261,76.34934790000261,76.34934790000261,,left,-14.0,0,0,0.2515172999992501,677501,001,2023-09-07_11h09.48.820,adaptive_staircase,2023.1.3,60.045995233065234,
0,0,0,0,19,1,15.0,76.63232370000333,77.13210090000211,77.13210090000211,77.13210090000211,,left,-15.0,0,0,0.053762199997436255,677501,001,2023-09-07_11h09.48.820,adaptive_staircase,2023.1.3,60.045995233065234,
0,0,0,0,20,1,16.0,77.21506719999888,77.7147330000007,77.7147330000007,77.7147330000007,,right,16.0,1,1,0.022685600000841077,677501,001,2023-09-07_11h09.48.820,adaptive_staircase,2023.1.3,60.045995233065234,
0,0,0,0,21,1,16.0,77.76445429999876,78.26423570000043,78.26423570000043,78.26423570000043,,left,-16.0,0,0,0.11646330000075977,677501,001,2023-09-07_11h09.48.820,adaptive_staircase,2023.1.3,60.045995233065234,
0,0,0,0,22,1,17.0,78.39731200000097,78.89699049999763,78.89699049999763,78.89699049999763,,left,-17.0,0,0,0.08433859999786364,677501,001,2023-09-07_11h09.48.820,adaptive_staircase,2023.1.3,60.045995233065234,
0,0,0,0,23,1,18.0,79.01336109999829,79.51309670000046,79.51309670000046,79.51309670000046,,left,-18.0,0,0,0.05012459999852581,677501,001,2023-09-07_11h09.48.820,adaptive_staircase,2023.1.3,60.045995233065234,
0,0,0,0,24,1,19.0,79.57947309999872,80.07911910000257,80.07911910000257,80.07911910000257,,left,-19.0,0,0,0.033208900000317954,677501,001,2023-09-07_11h09.48.820,adaptive_staircase,2023.1.3,60.045995233065234,
0,0,0,0,25,1,20.0,80.1290289000026,80.62863890000153,80.62863890000153,80.62863890000153,,left,-20.0,0,0,0.03909619999467395,677501,001,2023-09-07_11h09.48.820,adaptive_staircase,2023.1.3,60.045995233065234,
0,0,0,0,26,1,20.0,80.69518460000108,81.1948263000013,81.1948263000013,81.1948263000013,81.49429999999847,right,20.0,0,0,0.2843172999928356,677501,001,2023-09-07_11h09.48.820,adaptive_staircase,2023.1.3,60.045995233065234,
0,0,0,0,27,1,20.0,81.51110450000124,82.01076350000221,82.01076350000221,82.01076350000221,,right,20.0,0,0,0.006204199999046978,677501,001,2023-09-07_11h09.48.820,adaptive_staircase,2023.1.3,60.045995233065234,
0,0,0,0,28,1,20.0,82.0438473999966,82.54348649999883,82.54348649999883,82.54348649999883,,right,20.0,1,1,0.2638011999952141,677501,001,2023-09-07_11h09.48.820,adaptive_staircase,2023.1.3,60.045995233065234,
0,0,0,0,29,1,20.0,82.82640459999675,83.32626500000333,83.32626500000333,83.32626500000333,,left,-20.0,0,0,0.04211980000400217,677501,001,2023-09-07_11h09.48.820,adaptive_staircase,2023.1.3,60.045995233065234,
0,0,0,0,30,1,20.0,83.39265599999635,83.8923072999969,83.8923072999969,83.8923072999969,,right,20.0,1,1,0.1018188999951235,677501,001,2023-09-07_11h09.48.820,adaptive_staircase,2023.1.3,60.045995233065234,
0,0,0,0,31,1,20.0,84.0253356999965,84.52507850000256,84.52507850000256,84.52507850000256,84.82464710000204,right,20.0,0,0,0.3090038999944227,677501,001,2023-09-07_11h09.48.820,adaptive_staircase,2023.1.3,60.045995233065234,
0,0,0,0,32,1,20.0,84.85803039999882,85.35764799999743,85.35764799999743,85.35764799999743,,right,20.0,0,0,0.043177100000320934,677501,001,2023-09-07_11h09.48.820,adaptive_staircase,2023.1.3,60.045995233065234,
0,0,0,0,33,1,20.0,85.42408599999908,85.92361479999818,85.92361479999818,85.92361479999818,86.22327860000223,right,20.0,1,1,0.32955650000076275,677501,001,2023-09-07_11h09.48.820,adaptive_staircase,2023.1.3,60.045995233065234,
0,0,0,0,34,1,20.0,86.273259900001,86.77292239999952,86.77292239999952,86.77292239999952,,left,-20.0,0,0,0.1892477000001236,677501,001,2023-09-07_11h09.48.820,adaptive_staircase,2023.1.3,60.045995233065234,
0,0,0,0,35,1,20.0,86.98923189999914,87.48902100000123,87.48902100000123,87.48902100000123,,left,-20.0,0,0,0.15242519999446813,677501,001,2023-09-07_11h09.48.820,adaptive_staircase,2023.1.3,60.045995233065234,
0,0,0,0,36,1,20.0,87.67212190000282,88.17170780000015,88.17170780000015,88.17170780000015,,right,20.0,1,1,0.019217100001696963,677501,001,2023-09-07_11h09.48.820,adaptive_staircase,2023.1.3,60.045995233065234,
0,0,0,0,37,1,20.0,88.22138370000175,88.72120610000275,88.72120610000275,88.72120610000275,,left,-20.0,0,0,0.06184649999340763,677501,001,2023-09-07_11h09.48.820,adaptive_staircase,2023.1.3,60.045995233065234,
0,0,0,0,38,1,20.0,88.80419860000256,89.30400280000322,89.30400280000322,89.30400280000322,89.60350440000184,right,20.0,1,1,0.26851909999822965,677501,001,2023-09-07_11h09.48.820,adaptive_staircase,2023.1.3,60.045995233065234,
0,0,0,0,39,1,20.0,89.60350440000184,90.1033163999964,90.1033163999964,90.1033163999964,,right,20.0,1,1,0.04631789999984903,677501,001,2023-09-07_11h09.48.820,adaptive_staircase,2023.1.3,60.045995233065234,
0,0,0,0,40,1,20.0,90.16955980000057,90.66934089999995,90.66934089999995,90.66934089999995,,right,20.0,1,1,0.052908299992850516,677501,001,2023-09-07_11h09.48.820,adaptive_staircase,2023.1.3,60.045995233065234,
0,0,0,0,41,1,19.0,90.75235490000341,91.25211549999949,91.25211549999949,91.25211549999949,,right,19.0,1,1,0.14616439999372233,677501,001,2023-09-07_11h09.48.820,adaptive_staircase,2023.1.3,60.045995233065234,
0,0,0,0,42,1,19.0,91.41848529999697,91.91810660000192,91.91810660000192,91.91810660000192,,right,19.0,1,1,0.04630259999248665,677501,001,2023-09-07_11h09.48.820,adaptive_staircase,2023.1.3,60.045995233065234,
0,0,0,0,43,0.5,19.0,91.98458750000282,92.48434439999983,92.48434439999983,92.48434439999983,,left,-19.0,0,0,0.005817699995532166,677501,001,2023-09-07_11h09.48.820,adaptive_staircase,2023.1.3,60.045995233065234,
0,0,0,0,44,0.5,19.5,92.51740720000089,93.01710530000128,93.01710530000128,93.01710530000128,,right,19.5,1,1,0.1412789999958477,677501,001,2023-09-07_11h09.48.820,adaptive_staircase,2023.1.3,60.045995233065234,
0,0,0,0,45,0.5,19.5,93.18352900000173,93.68356589999894,93.68356589999894,93.68356589999894,93.98268570000073,left,-19.5,1,1,0.3396768999955384,677501,001,2023-09-07_11h09.48.820,adaptive_staircase,2023.1.3,60.045995233065234,
0,0,0,0,46,0.5,19.5,94.04934910000156,94.54906440000195,94.54906440000195,94.54906440000195,,left,-19.5,1,1,0.0030010999980731867,677501,001,2023-09-07_11h09.48.820,adaptive_staircase,2023.1.3,60.045995233065234,
0,0,0,0,47,0.5,19.0,94.5821666999982,95.08173369999713,95.08173369999713,95.08173369999713,,left,-19.0,1,1,0.0010883999930229038,677501,001,2023-09-07_11h09.48.820,adaptive_staircase,2023.1.3,60.045995233065234,
0,0,0,0,48,0.5,19.0,95.11505220000254,95.61470779999945,95.61470779999945,95.61470779999945,95.91427709999698,left,-19.0,0,0,0.2816127999976743,677501,001,2023-09-07_11h09.48.820,adaptive_staircase,2023.1.3,60.045995233065234,
0,0,0,0,49,0.5,19.5,95.91427709999698,96.41389319999871,96.41389319999871,96.41389319999871,96.7136754000021,right,19.5,0,0,0.3573218999954406,677501,001,2023-09-07_11h09.48.820,adaptive_staircase,2023.1.3,60.045995233065234,
0,0,0,0,,,,,,,,,,,,,,677501,001,2023-09-07_11h09.48.820,adaptive_staircase,2023.1.3,60.045995233065234,
1,0,1,0,0,2,10.0,96.79692159999831,97.2964426000035,97.2964426000035,97.2964426000035,,left,-10.0,1,1,0.16675109999778215,677501,001,2023-09-07_11h09.48.820,adaptive_staircase,2023.1.3,60.045995233065234,
1,0,1,0,1,1,8.0,97.47952139999688,97.97916909999913,97.97916909999913,97.97916909999913,,right,8.0,0,0,0.017842000001110137,677501,001,2023-09-07_11h09.48.820,adaptive_staircase,2023.1.3,60.045995233065234,
1,0,1,0,2,1,9.0,98.02894620000006,98.52857170000061,98.52857170000061,98.52857170000061,,left,-9.0,1,1,0.11688100000174018,677501,001,2023-09-07_11h09.48.820,adaptive_staircase,2023.1.3,60.045995233065234,
1,0,1,0,3,1,9.0,98.66163399999641,99.16143729999749,99.16143729999749,99.16143729999749,,left,-9.0,1,1,0.08149820000107866,677501,001,2023-09-07_11h09.48.820,adaptive_staircase,2023.1.3,60.045995233065234,
1,0,1,0,4,1,9.0,99.26117299999896,99.76085069999681,99.76085069999681,99.76085069999681,,right,9.0,0,0,0.04451689999405062,677501,001,2023-09-07_11h09.48.820,adaptive_staircase,2023.1.3,60.045995233065234,
1,0,1,0,5,1,10.0,99.82716919999802,100.32700499999919,100.32700499999919,100.32700499999919,,right,10.0,0,0,0.049175000000104774,677501,001,2023-09-07_11h09.48.820,adaptive_staircase,2023.1.3,60.045995233065234,
1,0,1,0,6,1,11.0,100.3934395000033,100.89312020000216,100.89312020000216,100.89312020000216,,right,11.0,0,0,0.0916030000007595,677501,001,2023-09-07_11h09.48.820,adaptive_staircase,2023.1.3,60.045995233065234,
1,0,1,0,7,1,12.0,101.00952479999978,101.50919620000059,101.50919620000059,101.50919620000059,,right,12.0,0,0,0.054930899997998495,677501,001,2023-09-07_11h09.48.820,adaptive_staircase,2023.1.3,60.045995233065234,
1,0,1,0,8,1,13.0,101.59233349999704,102.09193789999699,102.09193789999699,102.09193789999699,,left,-13.0,1,1,0.03841209999518469,677501,001,2023-09-07_11h09.48.820,adaptive_staircase,2023.1.3,60.045995233065234,
1,0,1,0,9,1,13.0,102.1584023999967,102.65804850000131,102.65804850000131,102.65804850000131,102.95761740000307,right,13.0,1,1,0.3212608999965596,677501,001,2023-09-07_11h09.48.820,adaptive_staircase,2023.1.3,60.045995233065234,
1,0,1,0,10,1,13.0,103.00777620000008,103.50734060000104,103.50734060000104,103.50734060000104,,right,13.0,1,1,0.05496889999631094,677501,001,2023-09-07_11h09.48.820,adaptive_staircase,2023.1.3,60.045995233065234,
1,0,1,0,11,0.5,12.0,103.59033490000002,104.09007620000193,104.09007620000193,104.09007620000193,,left,-12.0,0,0,0.04903179999382701,677501,001,2023-09-07_11h09.48.820,adaptive_staircase,2023.1.3,60.045995233065234,
1,0,1,0,12,0.5,12.5,104.15648599999986,104.65625030000228,104.65625030000228,104.65625030000228,,left,-12.5,0,0,0.05903299999772571,677501,001,2023-09-07_11h09.48.820,adaptive_staircase,2023.1.3,60.045995233065234,
1,0,1,0,13,0.5,13.0,104.7392863999994,105.23911840000073,105.23911840000073,105.23911840000073,105.53882539999904,right,13.0,0,0,0.2982354999985546,677501,001,2023-09-07_11h09.48.820,adaptive_staircase,2023.1.3,60.045995233065234,
1,0,1,0,14,0.5,13.5,105.55522080000082,106.05498839999927,106.05498839999927,106.05498839999927,,left,-13.5,1,1,0.04889030000049388,677501,001,2023-09-07_11h09.48.820,adaptive_staircase,2023.1.3,60.045995233065234,
1,0,1,0,15,0.5,13.5,106.12146789999679,106.62113020000106,106.62113020000106,106.62113020000106,106.92068260000087,left,-13.5,0,0,1.0432888999930583,677501,001,2023-09-07_11h09.48.820,adaptive_staircase,2023.1.3,60.045995233065234,
1,0,1,0,16,0.5,14.0,107.68666819999635,108.18617400000221,108.18617400000221,108.18617400000221,108.48580070000025,right,14.0,0,0,0.9730354999992414,677501,001,2023-09-07_11h09.48.820,adaptive_staircase,2023.1.3,60.045995233065234,
1,0,1,0,17,0.5,14.5,109.18523499999719,109.6849985000008,109.6849985000008,109.6849985000008,,right,14.5,0,0,0.14325400000234367,677501,001,2023-09-07_11h09.48.820,adaptive_staircase,2023.1.3,60.045995233065234,
1,0,1,0,18,0.5,15.0,109.8512824999998,110.35100750000129,110.35100750000129,110.35100750000129,,left,-15.0,1,1,0.05891500000143424,677501,001,2023-09-07_11h09.48.820,adaptive_staircase,2023.1.3,60.045995233065234,
1,0,1,0,19,0.5,15.0,110.43407209999714,110.93365939999785,110.93365939999785,110.93365939999785,,left,-15.0,1,1,0.06491919999825768,677501,001,2023-09-07_11h09.48.820,adaptive_staircase,2023.1.3,60.045995233065234,
1,0,1,0,20,0.5,15.0,111.01677719999861,111.51653729999816,111.51653729999816,111.51653729999816,,left,-15.0,1,1,0.09972649999690475,677501,001,2023-09-07_11h09.48.820,adaptive_staircase,2023.1.3,60.045995233065234,
1,0,1,0,21,0.5,14.5,111.63298829999985,112.13250300000072,112.13250300000072,112.13250300000072,112.43254519999755,right,14.5,1,1,0.2972896999999648,677501,001,2023-09-07_11h09.48.820,adaptive_staircase,2023.1.3,60.045995233065234,
1,0,1,0,22,0.5,14.5,112.44888920000085,112.94842280000012,112.94842280000012,112.94842280000012,,right,14.5,0,0,0.20426499999302905,677501,001,2023-09-07_11h09.48.820,adaptive_staircase,2023.1.3,60.045995233065234,
1,0,1,0,23,0.5,15.0,113.18139399999927,113.68118970000069,113.68118970000069,113.68118970000069,113.98066310000286,right,15.0,0,0,0.33607019999908516,677501,001,2023-09-07_11h09.48.820,adaptive_staircase,2023.1.3,60.045995233065234,
1,0,1,0,24,0.5,15.5,114.0473748000004,114.5470015000028,114.5470015000028,114.5470015000028,114.84659829999873,left,-15.5,1,1,0.3152293999955873,677501,001,2023-09-07_11h09.48.820,adaptive_staircase,2023.1.3,60.045995233065234,
1,0,1,0,25,0.5,15.5,114.87989489999745,115.37949990000197,115.37949990000197,115.37949990000197,,right,15.5,0,0,0.14516569999977946,677501,001,2023-09-07_11h09.48.820,adaptive_staircase,2023.1.3,60.045995233065234,
1,0,1,0,26,0.5,16.0,115.54593040000327,116.04565639999782,116.04565639999782,116.04565639999782,,right,16.0,0,0,0.11671049999858951,677501,001,2023-09-07_11h09.48.820,adaptive_staircase,2023.1.3,60.045995233065234,
1,0,1,0,27,0.5,16.5,116.17863159999979,116.67840759999672,116.67840759999672,116.67840759999672,,left,-16.5,1,1,0.1420466999989003,677501,001,2023-09-07_11h09.48.820,adaptive_staircase,2023.1.3,60.045995233065234,
1,0,1,0,28,0.5,16.5,116.84479170000122,117.34441610000067,117.34441610000067,117.34441610000067,,left,-16.5,1,1,0.05187679999653483,677501,001,2023-09-07_11h09.48.820,adaptive_staircase,2023.1.3,60.045995233065234,
1,0,1,0,29,0.5,16.5,117.4274912999972,117.9271579999986,117.9271579999986,117.9271579999986,,left,-16.5,1,1,0.021782900003017858,677501,001,2023-09-07_11h09.48.820,adaptive_staircase,2023.1.3,60.045995233065234,
1,0,1,0,30,0.5,16.0,117.97692809999717,118.4766673999984,118.4766673999984,118.4766673999984,,left,-16.0,1,1,0.14138649999949848,677501,001,2023-09-07_11h09.48.820,adaptive_staircase,2023.1.3,60.045995233065234,
1,0,1,0,31,0.5,16.0,118.64308310000342,119.1426455999972,119.1426455999972,119.1426455999972,,right,16.0,0,0,0.004150399996433407,677501,001,2023-09-07_11h09.48.820,adaptive_staircase,2023.1.3,60.045995233065234,
1,0,1,0,32,0.5,16.5,119.17581290000089,119.67583300000115,119.67583300000115,119.67583300000115,,left,-16.5,1,1,0.25847609999618726,677501,001,2023-09-07_11h09.48.820,adaptive_staircase,2023.1.3,60.045995233065234,
1,0,1,0,33,0.5,16.5,119.95856240000285,120.45810299999721,120.45810299999721,120.45810299999721,,left,-16.5,1,1,0.1694359999964945,677501,001,2023-09-07_11h09.48.820,adaptive_staircase,2023.1.3,60.045995233065234,
1,0,1,0,34,0.5,16.5,120.6577787999995,121.15754059999745,121.15754059999745,121.15754059999745,,left,-16.5,1,1,0.07819870000093943,677501,001,2023-09-07_11h09.48.820,adaptive_staircase,2023.1.3,60.045995233065234,
1,0,1,0,35,0.5,16.0,121.2572508000012,121.75691060000099,121.75691060000099,121.75691060000099,,left,-16.0,1,1,0.056348300000536256,677501,001,2023-09-07_11h09.48.820,adaptive_staircase,2023.1.3,60.045995233065234,
1,0,1,0,36,0.5,16.0,121.84006370000134,122.33979220000037,122.33979220000037,122.33979220000037,,left,-16.0,1,1,0.12184859999251785,677501,001,2023-09-07_11h09.48.820,adaptive_staircase,2023.1.3,60.045995233065234,
1,0,1,0,37,0.5,16.0,122.48947580000095,122.98916029999964,122.98916029999964,122.98916029999964,,left,-16.0,1,1,0.06422469999233726,677501,001,2023-09-07_11h09.48.820,adaptive_staircase,2023.1.3,60.045995233065234,
1,0,1,0,38,0.5,15.5,123.0723089000021,123.57209319999674,123.57209319999674,123.57209319999674,,left,-15.5,1,1,0.1881342999986373,677501,001,2023-09-07_11h09.48.820,adaptive_staircase,2023.1.3,60.045995233065234,
1,0,1,0,39,0.5,15.5,123.78839539999899,124.28811999999743,124.28811999999743,124.28811999999743,,right,15.5,0,0,0.03838299999915762,677501,001,2023-09-07_11h09.48.820,adaptive_staircase,2023.1.3,60.045995233065234,
1,0,1,0,40,0.5,16.0,124.3547275000019,124.83750010000222,124.83750010000222,124.8539837999997,,right,16.0,0,0,0.04215689999546157,677501,001,2023-09-07_11h09.48.820,adaptive_staircase,2023.1.3,60.045995233065234,
1,0,1,0,41,0.5,16.5,124.90381999999954,125.40357760000188,125.40357760000188,125.40357760000188,,left,-16.5,1,1,0.012505499995313585,677501,001,2023-09-07_11h09.48.820,adaptive_staircase,2023.1.3,60.045995233065234,
1,0,1,0,42,0.5,16.5,125.43671770000219,125.9364882000009,125.9364882000009,125.9364882000009,,right,16.5,0,0,0.25156019999849377,677501,001,2023-09-07_11h09.48.820,adaptive_staircase,2023.1.3,60.045995233065234,
1,0,1,0,43,0.5,17.0,126.2193791000027,126.71907729999657,126.71907729999657,126.71907729999657,,right,17.0,1,1,0.13630949999787845,677501,001,2023-09-07_11h09.48.820,adaptive_staircase,2023.1.3,60.045995233065234,
1,0,1,0,44,0.5,17.0,126.8853642000031,127.38513989999774,127.38513989999774,127.38513989999774,,left,-17.0,0,0,0.1734474999975646,677501,001,2023-09-07_11h09.48.820,adaptive_staircase,2023.1.3,60.045995233065234,
1,0,1,0,45,0.5,17.5,127.58462850000069,128.08442939999804,128.08442939999804,128.08442939999804,,right,17.5,1,1,0.1583279999977094,677501,001,2023-09-07_11h09.48.820,adaptive_staircase,2023.1.3,60.045995233065234,
1,0,1,0,46,0.5,17.5,128.267399999997,128.7670203000016,128.7670203000016,128.7670203000016,,left,-17.5,0,0,0.10327899999538204,677501,001,2023-09-07_11h09.48.820,adaptive_staircase,2023.1.3,60.045995233065234,
1,0,1,0,47,0.5,18.0,128.90016150000156,129.3999027000027,129.3999027000027,129.3999027000027,,right,18.0,1,1,0.036184299999149516,677501,001,2023-09-07_11h09.48.820,adaptive_staircase,2023.1.3,60.045995233065234,
1,0,1,0,48,0.5,18.0,129.46622840000055,129.96599330000026,129.96599330000026,129.96599330000026,,right,18.0,1,1,0.009975299995858222,677501,001,2023-09-07_11h09.48.820,adaptive_staircase,2023.1.3,60.045995233065234,
1,0,1,0,49,0.5,18.0,129.99940380000044,130.49888140000257,130.49888140000257,130.49888140000257,,right,18.0,1,1,0.011970200001087505,677501,001,2023-09-07_11h09.48.820,adaptive_staircase,2023.1.3,60.045995233065234,
1,0,1,0,,,,,,,,,,,,,,677501,001,2023-09-07_11h09.48.820,adaptive_staircase,2023.1.3,60.045995233065234,
2,0,2,0,0,2,10.0,130.53195859999687,131.03179249999812,131.03179249999812,131.03179249999812,131.33123779999733,right,10.0,1,1,0.42680660000041826,677501,001,2023-09-07_11h09.48.820,adaptive_staircase,2023.1.3,60.045995233065234,
2,0,2,0,1,2,8.0,131.48104859999876,131.9807832000006,131.9807832000006,131.9807832000006,132.28035359999922,right,8.0,1,1,0.3234636999986833,677501,001,2023-09-07_11h09.48.820,adaptive_staircase,2023.1.3,60.045995233065234,
2,0,2,0,2,1,6.0,132.33029939999687,132.8299552000026,132.8299552000026,132.8299552000026,133.12951099999918,left,-6.0,0,0,0.36639760000252863,677501,001,2023-09-07_11h09.48.820,adaptive_staircase,2023.1.3,60.045995233065234,
2,0,2,0,3,1,7.0,133.21280329999718,133.71261879999656,133.71261879999656,133.71261879999656,134.01202380000177,left,-7.0,1,1,0.3586317000008421,677501,001,2023-09-07_11h09.48.820,adaptive_staircase,2023.1.3,60.045995233065234,
2,0,2,0,4,1,7.0,134.0953038000007,134.59504420000303,134.59504420000303,134.59504420000303,134.89442250000138,left,-7.0,1,1,0.30635959999926854,677501,001,2023-09-07_11h09.48.820,adaptive_staircase,2023.1.3,60.045995233065234,
2,0,2,0,5,1,7.0,134.92794490000233,135.42752550000296,135.42752550000296,135.42752550000296,,left,-7.0,1,1,0.14095099999394733,677501,001,2023-09-07_11h09.48.820,adaptive_staircase,2023.1.3,60.045995233065234,
2,0,2,0,6,0.5,6.0,135.5939223000023,136.09364630000346,136.09364630000346,136.09364630000346,136.3930771000014,right,6.0,0,0,0.3500493000028655,677501,001,2023-09-07_11h09.48.820,adaptive_staircase,2023.1.3,60.045995233065234,
2,0,2,0,7,0.5,6.5,136.47646309999982,136.976107399998,136.976107399998,136.976107399998,137.27563189999637,left,-6.5,1,1,0.3013498999935109,677501,001,2023-09-07_11h09.48.820,adaptive_staircase,2023.1.3,60.045995233065234,
2,0,2,0,8,0.5,6.5,137.30899340000178,137.80865820000326,137.80865820000326,137.80865820000326,,right,6.5,1,1,0.24999189999653026,677501,001,2023-09-07_11h09.48.820,adaptive_staircase,2023.1.3,60.045995233065234,
2,0,2,0,9,0.5,6.5,138.07498209999903,138.5745569999999,138.5745569999999,138.5745569999999,138.87413650000235,left,-6.5,0,0,0.3774790999959805,677501,001,2023-09-07_11h09.48.820,adaptive_staircase,2023.1.3,60.045995233065234,
2,0,2,0,10,0.5,7.0,138.9741079000014,139.47370200000296,139.47370200000296,139.47370200000296,,left,-7.0,1,1,0.2567523999969126,677501,001,2023-09-07_11h09.48.820,adaptive_staircase,2023.1.3,60.045995233065234,
2,0,2,0,11,0.5,7.0,139.7567119000014,140.2563741999984,140.2563741999984,140.2563741999984,140.55600340000092,right,7.0,0,0,0.3390986999947927,677501,001,2023-09-07_11h09.48.820,adaptive_staircase,2023.1.3,60.045995233065234,
2,0,2,0,12,0.5,7.5,140.6226616999993,141.12229099999968,141.12229099999968,141.12229099999968,141.4218200000032,right,7.5,1,1,0.2785195000033127,677501,001,2023-09-07_11h09.48.820,adaptive_staircase,2023.1.3,60.045995233065234,
2,0,2,0,13,0.5,7.5,141.4218200000032,141.921502899997,141.921502899997,141.921502899997,142.22098260000348,left,-7.5,0,0,0.34612339999875985,677501,001,2023-09-07_11h09.48.820,adaptive_staircase,2023.1.3,60.045995233065234,
2,0,2,0,14,0.5,8.0,142.28774169999815,142.78735569999844,142.78735569999844,142.78735569999844,143.08695019999868,right,8.0,0,0,0.2933093000028748,677501,001,2023-09-07_11h09.48.820,adaptive_staircase,2023.1.3,60.045995233065234,
2,0,2,0,15,0.5,8.5,143.10350769999786,143.60326150000037,143.60326150000037,143.60326150000037,143.9027386000016,right,8.5,0,0,0.31504560000030324,677501,001,2023-09-07_11h09.48.820,adaptive_staircase,2023.1.3,60.045995233065234,
2,0,2,0,16,0.5,9.0,143.9361629999985,144.43568699999742,144.43568699999742,144.43568699999742,,left,-9.0,0,0,0.26516219999757595,677501,001,2023-09-07_11h09.48.820,adaptive_staircase,2023.1.3,60.045995233065234,
2,0,2,0,17,0.5,9.5,144.71877379999933,145.21868160000304,145.21868160000304,145.21868160000304,145.51792269999714,left,-9.5,0,0,0.30078340000181925,677501,001,2023-09-07_11h09.48.820,adaptive_staircase,2023.1.3,60.045995233065234,
2,0,2,0,18,0.5,10.0,145.55133670000214,146.0510310000027,146.0510310000027,146.0510310000027,,left,-10.0,1,1,0.23917629999778,677501,001,2023-09-07_11h09.48.820,adaptive_staircase,2023.1.3,60.045995233065234,
2,0,2,0,19,0.5,10.0,146.31714410000131,146.81698329999927,146.81698329999927,146.81698329999927,,right,10.0,0,0,0.2627180999988923,677501,001,2023-09-07_11h09.48.820,adaptive_staircase,2023.1.3,60.045995233065234,
2,0,2,0,20,0.5,10.5,147.09972739999648,147.59948550000263,147.59948550000263,147.59948550000263,,right,10.5,1,1,0.23854910000227392,677501,001,2023-09-07_11h09.48.820,adaptive_staircase,2023.1.3,60.045995233065234,
2,0,2,0,21,0.5,10.5,147.86584669999866,148.3656547999999,148.3656547999999,148.3656547999999,,right,10.5,1,1,0.23325629999453668,677501,001,2023-09-07_11h09.48.820,adaptive_staircase,2023.1.3,60.045995233065234,
2,0,2,0,22,0.5,10.5,148.61511389999941,149.11482190000243,149.11482190000243,149.11482190000243,149.41436909999902,left,-10.5,1,1,0.3532441999996081,677501,001,2023-09-07_11h09.48.820,adaptive_staircase,2023.1.3,60.045995233065234,
2,0,2,0,23,0.5,10.0,149.4977033000032,149.99725490000128,149.99725490000128,149.99725490000128,150.29686879999645,left,-10.0,1,1,0.26793349999934435,677501,001,2023-09-07_11h09.48.820,adaptive_staircase,2023.1.3,60.045995233065234,
2,0,2,0,24,0.5,10.0,150.29686879999645,150.79649220000283,150.79649220000283,150.79649220000283,,right,10.0,1,1,0.20694450000155484,677501,001,2023-09-07_11h09.48.820,adaptive_staircase,2023.1.3,60.045995233065234,
2,0,2,0,25,0.5,10.0,151.02954489999684,151.52924899999925,151.52924899999925,151.52924899999925,,right,10.0,1,1,0.19377779999922495,677501,001,2023-09-07_11h09.48.820,adaptive_staircase,2023.1.3,60.045995233065234,
2,0,2,0,26,0.5,9.5,151.7454448999997,152.2449781999967,152.2449781999967,152.2449781999967,,left,-9.5,0,0,0.21510359999956563,677501,001,2023-09-07_11h09.48.820,adaptive_staircase,2023.1.3,60.045995233065234,
2,0,2,0,27,0.5,10.0,152.47816440000315,152.97796099999687,152.97796099999687,152.97796099999687,153.27726039999834,left,-10.0,0,0,0.2687865999978385,677501,001,2023-09-07_11h09.48.820,adaptive_staircase,2023.1.3,60.045995233065234,
2,0,2,0,28,0.5,10.5,153.27726039999834,153.7773240000024,153.7773240000024,153.7773240000024,,right,10.5,1,1,0.2480258999930811,677501,001,2023-09-07_11h09.48.820,adaptive_staircase,2023.1.3,60.045995233065234,
2,0,2,0,29,0.5,10.5,154.04312809999828,154.54294829999708,154.54294829999708,154.54294829999708,,right,10.5,1,1,0.25953369999479037,677501,001,2023-09-07_11h09.48.820,adaptive_staircase,2023.1.3,60.045995233065234,
2,0,2,0,30,0.5,10.5,154.8259487000032,155.32555180000054,155.32555180000054,155.32555180000054,,left,-10.5,0,0,0.2319396999955643,677501,001,2023-09-07_11h09.48.820,adaptive_staircase,2023.1.3,60.045995233065234,
2,0,2,0,31,0.5,11.0,155.57535949999874,156.07480270000087,156.07480270000087,156.07480270000087,156.37424550000287,right,11.0,1,1,0.2749407000010251,677501,001,2023-09-07_11h09.48.820,adaptive_staircase,2023.1.3,60.045995233065234,
2,0,2,0,32,0.5,11.0,156.37424550000287,156.87406909999845,156.87406909999845,156.87406909999845,157.17374350000318,right,11.0,1,1,0.28015589999995427,677501,001,2023-09-07_11h09.48.820,adaptive_staircase,2023.1.3,60.045995233065234,
2,0,2,0,33,0.5,11.0,157.17374350000318,157.67327710000245,157.67327710000245,157.67327710000245,,left,-11.0,0,0,0.25453859999834094,677501,001,2023-09-07_11h09.48.820,adaptive_staircase,2023.1.3,60.045995233065234,
2,0,2,0,34,0.5,11.5,157.9562511999975,158.45599899999797,158.45599899999797,158.45599899999797,,left,-11.5,0,0,0.06576340000174241,677501,001,2023-09-07_11h09.48.820,adaptive_staircase,2023.1.3,60.045995233065234,
2,0,2,0,35,0.5,12.0,158.53903469999932,159.03898130000016,159.03898130000016,159.03898130000016,,right,12.0,1,1,0.017909900001541246,677501,001,2023-09-07_11h09.48.820,adaptive_staircase,2023.1.3,60.045995233065234,
2,0,2,0,36,0.5,12.0,159.08882230000017,159.58812089999992,159.58812089999992,159.58812089999992,,right,12.0,1,1,0.10185980000096606,677501,001,2023-09-07_11h09.48.820,adaptive_staircase,2023.1.3,60.045995233065234,
2,0,2,0,37,0.5,12.0,159.72134219999862,160.22118829999818,160.22118829999818,160.22118829999818,160.52048849999846,left,-12.0,0,0,0.5574385999934748,677501,001,2023-09-07_11h09.48.820,adaptive_staircase,2023.1.3,60.045995233065234,
2,0,2,0,38,0.5,12.5,160.80348180000146,161.30313659999956,161.30313659999956,161.30313659999956,161.60288479999872,left,-12.5,0,0,0.3181844999999157,677501,001,2023-09-07_11h09.48.820,adaptive_staircase,2023.1.3,60.045995233065234,
2,0,2,0,39,0.5,13.0,161.65293329999986,162.15262059999804,162.15262059999804,162.15262059999804,162.4522377999965,right,13.0,1,1,0.34255190000112634,677501,001,2023-09-07_11h09.48.820,adaptive_staircase,2023.1.3,60.045995233065234,
2,0,2,0,40,0.5,13.0,162.51881120000326,163.0183743000016,163.0183743000016,163.0183743000016,,right,13.0,1,1,0.24405790000309935,677501,001,2023-09-07_11h09.48.820,adaptive_staircase,2023.1.3,60.045995233065234,
2,0,2,0,41,0.5,13.0,163.2846886999978,163.78463419999753,163.78463419999753,163.78463419999753,,left,-13.0,0,0,0.16830259999551345,677501,001,2023-09-07_11h09.48.820,adaptive_staircase,2023.1.3,60.045995233065234,
2,0,2,0,42,0.5,13.5,163.9840946999975,164.48374889999832,164.48374889999832,164.48374889999832,,left,-13.5,0,0,0.006166599996504374,677501,001,2023-09-07_11h09.48.820,adaptive_staircase,2023.1.3,60.045995233065234,
2,0,2,0,43,0.5,14.0,164.51675090000208,165.01662979999674,165.01662979999674,165.01662979999674,,right,14.0,0,0,0.19977400000061607,677501,001,2023-09-07_11h09.48.820,adaptive_staircase,2023.1.3,60.045995233065234,
2,0,2,0,44,0.5,14.5,165.23268180000014,165.7323863999991,165.7323863999991,165.7323863999991,166.03193840000313,left,-14.5,1,1,0.33280249999370426,677501,001,2023-09-07_11h09.48.820,adaptive_staircase,2023.1.3,60.045995233065234,
2,0,2,0,45,0.5,14.5,166.08204329999717,166.58173220000026,166.58173220000026,166.58173220000026,166.8815173999974,right,14.5,0,0,0.3522919999959413,677501,001,2023-09-07_11h09.48.820,adaptive_staircase,2023.1.3,60.045995233065234,
2,0,2,0,46,0.5,15.0,166.96440560000337,167.46416370000225,167.46416370000225,167.46416370000225,167.7639707999988,left,-15.0,1,1,0.35035570000036387,677501,001,2023-09-07_11h09.48.820,adaptive_staircase,2023.1.3,60.045995233065234,
2,0,2,0,47,0.5,15.0,167.8471755999999,168.3467537999968,168.3467537999968,168.3467537999968,168.64634220000153,left,-15.0,1,1,0.33948400000372203,677501,001,2023-09-07_11h09.48.820,adaptive_staircase,2023.1.3,60.045995233065234,
2,0,2,0,48,0.5,15.0,168.71317830000044,169.21284190000006,169.21284190000006,169.21284190000006,,right,15.0,1,1,0.16127599999890663,677501,001,2023-09-07_11h09.48.820,adaptive_staircase,2023.1.3,60.045995233065234,
2,0,2,0,49,0.5,14.5,169.395817800003,169.89546349999728,169.89546349999728,169.89546349999728,,right,14.5,1,1,0.18914419999782695,677501,001,2023-09-07_11h09.48.820,adaptive_staircase,2023.1.3,60.045995233065234,
2,0,2,0,,,,,,,,,,,,,,677501,001,2023-09-07_11h09.48.820,adaptive_staircase,2023.1.3,60.045995233065234,
3,0,3,0,0,2,10.0,170.11154550000356,170.61118210000132,170.61118210000132,170.61118210000132,,right,10.0,1,1,0.2162469999966561,677501,001,2023-09-07_11h09.48.820,adaptive_staircase,2023.1.3,60.045995233065234,
3,0,3,0,1,2,8.0,170.84462119999807,171.34395280000172,171.34395280000172,171.34395280000172,,right,8.0,1,1,0.26491839999653166,677501,001,2023-09-07_11h09.48.820,adaptive_staircase,2023.1.3,60.045995233065234,
3,0,3,0,2,2,6.0,171.62687539999752,172.12665019999986,172.12665019999986,172.12665019999986,,right,6.0,1,1,0.16160539999691537,677501,001,2023-09-07_11h09.48.820,adaptive_staircase,2023.1.3,60.045995233065234,
3,0,3,0,3,1,4.0,172.3096147000033,172.80927689999953,172.80927689999953,172.80927689999953,,left,-4.0,0,0,0.19453950000024633,677501,001,2023-09-07_11h09.48.820,adaptive_staircase,2023.1.3,60.045995233065234,
3,0,3,0,4,1,5.0,173.02572710000095,173.52530030000344,173.52530030000344,173.52530030000344,,left,-5.0,0,0,0.17106469999998808,677501,001,2023-09-07_11h09.48.820,adaptive_staircase,2023.1.3,60.045995233065234,
3,0,3,0,5,1,6.0,173.72492980000243,174.2247967000003,174.2247967000003,174.2247967000003,,left,-6.0,0,0,0.1523079999969923,677501,001,2023-09-07_11h09.48.820,adaptive_staircase,2023.1.3,60.045995233065234,
3,0,3,0,6,1,7.0,174.40753940000286,174.9074901999993,174.9074901999993,174.9074901999993,,right,7.0,1,1,0.1178068999943207,677501,001,2023-09-07_11h09.48.820,adaptive_staircase,2023.1.3,60.045995233065234,
3,0,3,0,7,1,7.0,175.05702210000163,175.55692010000348,175.55692010000348,175.55692010000348,,left,-7.0,1,1,0.24433280000084778,677501,001,2023-09-07_11h09.48.820,adaptive_staircase,2023.1.3,60.045995233065234,
3,0,3,0,8,1,7.0,175.82292489999963,176.3226724999986,176.3226724999986,176.3226724999986,,left,-7.0,1,1,0.19968759999756003,677501,001,2023-09-07_11h09.48.820,adaptive_staircase,2023.1.3,60.045995233065234,
3,0,3,0,9,1,6.0,176.53879920000327,177.0387275999965,177.0387275999965,177.0387275999965,,left,-6.0,1,1,0.17651679999835324,677501,001,2023-09-07_11h09.48.820,adaptive_staircase,2023.1.3,60.045995233065234,
3,0,3,0,10,1,6.0,177.23833719999675,177.73806380000315,177.73806380000315,177.73806380000315,,left,-6.0,1,1,0.11891579999792157,677501,001,2023-09-07_11h09.48.820,adaptive_staircase,2023.1.3,60.045995233065234,
3,0,3,0,11,0.5,6.0,177.8877027999988,178.38742359999742,178.38742359999742,178.38742359999742,,right,6.0,0,0,0.17993610000121407,677501,001,2023-09-07_11h09.48.820,adaptive_staircase,2023.1.3,60.045995233065234,
3,0,3,0,12,0.5,6.5,178.58727920000092,179.08671630000026,179.08671630000026,179.08671630000026,,left,-6.5,1,1,0.16077019999647746,677501,001,2023-09-07_11h09.48.820,adaptive_staircase,2023.1.3,60.045995233065234,
3,0,3,0,13,0.5,6.5,179.27011140000104,179.76937119999639,179.76937119999639,179.76937119999639,,right,6.5,1,1,0.11199350000242703,677501,001,2023-09-07_11h09.48.820,adaptive_staircase,2023.1.3,60.045995233065234,
3,0,3,0,14,0.5,6.5,179.90266639999754,180.4019726999977,180.4019726999977,180.4019726999977,,right,6.5,1,1,0.09151489999931073,677501,001,2023-09-07_11h09.48.820,adaptive_staircase,2023.1.3,60.045995233065234,
3,0,3,0,15,0.5,6.0,180.51861729999655,181.01889389999997,181.01889389999997,181.01889389999997,,left,-6.0,0,0,0.1011545000001206,677501,001,2023-09-07_11h09.48.820,adaptive_staircase,2023.1.3,60.045995233065234,
3,0,3,0,16,0.5,6.5,181.15123889999813,181.65099319999717,181.65099319999717,181.65099319999717,,left,-6.5,0,0,0.08501970000361325,677501,001,2023-09-07_11h09.48.820,adaptive_staircase,2023.1.3,60.045995233065234,
3,0,3,0,17,0.5,7.0,181.76735560000088,182.2671455000018,182.2671455000018,182.2671455000018,,right,7.0,1,1,0.05236699999659322,677501,001,2023-09-07_11h09.48.820,adaptive_staircase,2023.1.3,60.045995233065234,
3,0,3,0,18,0.5,7.0,182.35036910000053,182.84999390000303,182.84999390000303,182.84999390000303,,right,7.0,1,1,0.06830369999806862,677501,001,2023-09-07_11h09.48.820,adaptive_staircase,2023.1.3,60.045995233065234,
3,0,3,0,19,0.5,7.0,182.94974999999977,183.4492728999976,183.4492728999976,183.4492728999976,,right,7.0,1,1,0.03333009999914793,677501,001,2023-09-07_11h09.48.820,adaptive_staircase,2023.1.3,60.045995233065234,
3,0,3,0,20,0.5,6.5,183.499218500001,183.9987207000013,183.9987207000013,183.9987207000013,,right,6.5,0,0,0.16553129999374505,677501,001,2023-09-07_11h09.48.820,adaptive_staircase,2023.1.3,60.045995233065234,
3,0,3,0,21,0.5,7.0,184.18185619999713,184.68163659999846,184.68163659999846,184.68163659999846,,left,-7.0,1,1,0.0959729999958654,677501,001,2023-09-07_11h09.48.820,adaptive_staircase,2023.1.3,60.045995233065234,
3,0,3,0,22,0.5,7.0,184.7981243999966,185.29750220000278,185.29750220000278,185.29750220000278,,right,7.0,0,0,0.058022999997774605,677501,001,2023-09-07_11h09.48.820,adaptive_staircase,2023.1.3,60.045995233065234,
3,0,3,0,23,0.5,7.5,185.38069969999924,185.88031000000046,185.88031000000046,185.88031000000046,,left,-7.5,1,1,0.04903490000288002,677501,001,2023-09-07_11h09.48.820,adaptive_staircase,2023.1.3,60.045995233065234,
3,0,3,0,24,0.5,7.5,185.94676620000246,186.44637740000326,186.44637740000326,186.44637740000326,,right,7.5,0,0,0.02788429999782238,677501,001,2023-09-07_11h09.48.820,adaptive_staircase,2023.1.3,60.045995233065234,
3,0,3,0,25,0.5,8.0,186.49643050000304,186.99593119999918,186.99593119999918,186.99593119999918,,right,8.0,1,1,0.09137559999362566,677501,001,2023-09-07_11h09.48.820,adaptive_staircase,2023.1.3,60.045995233065234,
3,0,3,0,26,0.5,8.0,187.11226439999882,187.61206970000057,187.61206970000057,187.61206970000057,,right,8.0,1,1,0.016352899998310022,677501,001,2023-09-07_11h09.48.820,adaptive_staircase,2023.1.3,60.045995233065234,
3,0,3,0,27,0.5,8.0,187.6451614999969,188.14509230000112,188.14509230000112,188.14509230000112,,right,8.0,1,1,0.16750190000311704,677501,001,2023-09-07_11h09.48.820,adaptive_staircase,2023.1.3,60.045995233065234,
3,0,3,0,28,0.5,7.5,188.34479100000317,188.84446300000127,188.84446300000127,188.84446300000127,,left,-7.5,0,0,0.22326900000189198,677501,001,2023-09-07_11h09.48.820,adaptive_staircase,2023.1.3,60.045995233065234,
3,0,3,0,29,0.5,8.0,189.0940438999969,189.59350850000192,189.59350850000192,189.59350850000192,189.89325129999634,left,-8.0,0,0,0.3588166999979876,677501,001,2023-09-07_11h09.48.820,adaptive_staircase,2023.1.3,60.045995233065234,
3,0,3,0,30,0.5,8.5,189.97631559999718,190.47605840000324,190.47605840000324,190.47605840000324,,right,8.5,0,0,0.25357200000144076,677501,001,2023-09-07_11h09.48.820,adaptive_staircase,2023.1.3,60.045995233065234,
3,0,3,0,31,0.5,9.0,190.75886780000292,191.2588764999964,191.2588764999964,191.2588764999964,,right,9.0,0,0,0.2062967999954708,677501,001,2023-09-07_11h09.48.820,adaptive_staircase,2023.1.3,60.045995233065234,
3,0,3,0,32,0.5,9.5,191.49165450000146,191.99136500000168,191.99136500000168,191.99136500000168,,right,9.5,1,1,0.22763329999725102,677501,001,2023-09-07_11h09.48.820,adaptive_staircase,2023.1.3,60.045995233065234,
3,0,3,0,33,0.5,9.5,192.2409878000035,192.7407407999999,192.7407407999999,192.7407407999999,,left,-9.5,0,0,0.0910710999960429,677501,001,2023-09-07_11h09.48.820,adaptive_staircase,2023.1.3,60.045995233065234,
3,0,3,0,34,0.5,10.0,192.85735310000018,193.35660069999722,193.35660069999722,193.35660069999722,,right,10.0,1,1,0.06360619999759365,677501,001,2023-09-07_11h09.48.820,adaptive_staircase,2023.1.3,60.045995233065234,
3,0,3,0,35,0.5,10.0,193.439721499999,193.93953270000202,193.93953270000202,193.93953270000202,,left,-10.0,0,0,0.02033149999624584,677501,001,2023-09-07_11h09.48.820,adaptive_staircase,2023.1.3,60.045995233065234,
3,0,3,0,36,0.5,10.5,193.98930770000152,194.48903150000115,194.48903150000115,194.48903150000115,,left,-10.5,1,1,0.10365029999957187,677501,001,2023-09-07_11h09.48.820,adaptive_staircase,2023.1.3,60.045995233065234,
3,0,3,0,37,0.5,10.5,194.62217370000144,195.12166920000163,195.12166920000163,195.12166920000163,,right,10.5,0,0,0.13919739999255398,677501,001,2023-09-07_11h09.48.820,adaptive_staircase,2023.1.3,60.045995233065234,
3,0,3,0,38,0.5,11.0,195.28820460000134,195.7880060000025,195.7880060000025,195.7880060000025,,left,-11.0,0,0,0.2583119999981136,677501,001,2023-09-07_11h09.48.820,adaptive_staircase,2023.1.3,60.045995233065234,
3,0,3,0,39,0.5,11.5,196.0709719000006,196.57030700000178,196.57030700000178,196.57030700000178,196.86992479999753,right,11.5,1,1,0.29348579999350477,677501,001,2023-09-07_11h09.48.820,adaptive_staircase,2023.1.3,60.045995233065234,
3,0,3,0,40,0.5,11.5,196.88672619999852,197.38640219999797,197.38640219999797,197.38640219999797,197.68610340000305,right,11.5,1,1,0.29321319999871776,677501,001,2023-09-07_11h09.48.820,adaptive_staircase,2023.1.3,60.045995233065234,
3,0,3,0,41,0.5,11.5,197.7026313000024,198.20232229999965,198.20232229999965,198.20232229999965,,left,-11.5,1,1,0.1528353999965475,677501,001,2023-09-07_11h09.48.820,adaptive_staircase,2023.1.3,60.045995233065234,
3,0,3,0,42,0.5,11.0,198.38532059999852,198.88499310000043,198.88499310000043,198.88499310000043,,left,-11.0,1,1,0.21842209999886109,677501,001,2023-09-07_11h09.48.820,adaptive_staircase,2023.1.3,60.045995233065234,
3,0,3,0,43,0.5,11.0,199.13487000000168,199.6342988000033,199.6342988000033,199.6342988000033,,left,-11.0,1,1,0.22859530000278028,677501,001,2023-09-07_11h09.48.820,adaptive_staircase,2023.1.3,60.045995233065234,
3,0,3,0,44,0.5,11.0,199.88377680000121,200.38362970000162,200.38362970000162,200.38362970000162,,left,-11.0,0,0,0.17608699999254895,677501,001,2023-09-07_11h09.48.820,adaptive_staircase,2023.1.3,60.045995233065234,
3,0,3,0,45,0.5,11.5,200.58310350000102,201.08336189999682,201.08336189999682,201.08336189999682,,right,11.5,1,1,0.2541258999990532,677501,001,2023-09-07_11h09.48.820,adaptive_staircase,2023.1.3,60.045995233065234,
3,0,3,0,46,0.5,11.5,201.36577509999915,201.8655293999982,201.8655293999982,201.8655293999982,,left,-11.5,0,0,0.224561499999254,677501,001,2023-09-07_11h09.48.820,adaptive_staircase,2023.1.3,60.045995233065234,
3,0,3,0,47,0.5,12.0,202.11524340000324,202.61468929999683,202.61468929999683,202.61468929999683,,right,12.0,1,1,0.0531459999983781,677501,001,2023-09-07_11h09.48.820,adaptive_staircase,2023.1.3,60.045995233065234,
3,0,3,0,48,0.5,12.0,202.6978151000003,203.19763589999638,203.19763589999638,203.19763589999638,,left,-12.0,0,0,0.2127907999965828,677501,001,2023-09-07_11h09.48.820,adaptive_staircase,2023.1.3,60.045995233065234,
3,0,3,0,49,0.5,12.5,203.4307209000035,203.9302106000032,203.9302106000032,203.9302106000032,,right,12.5,1,1,0.2651657999958843,677501,001,2023-09-07_11h09.48.820,adaptive_staircase,2023.1.3,60.045995233065234,
3,0,3,0,,,,,,,,,,,,,,677501,001,2023-09-07_11h09.48.820,adaptive_staircase,2023.1.3,60.045995233065234,
4,0,4,0,0,2,10.0,204.21322800000053,204.71302989999822,204.71302989999822,204.71302989999822,,right,10.0,1,1,0.0009353999994345941,677501,001,2023-09-07_11h09.48.820,adaptive_staircase,2023.1.3,60.045995233065234,
4,0,4,0,1,1,8.0,204.74613249999675,205.24573000000237,205.24573000000237,205.24573000000237,,left,-8.0,0,0,0.23914440000226023,677501,001,2023-09-07_11h09.48.820,adaptive_staircase,2023.1.3,60.045995233065234,
4,0,4,0,2,1,9.0,205.5121117000017,206.01213509999798,206.01213509999798,206.01213509999798,,left,-9.0,1,1,0.05154410000250209,677501,001,2023-09-07_11h09.48.820,adaptive_staircase,2023.1.3,60.045995233065234,
4,0,4,0,3,1,9.0,206.09494390000327,206.59471720000147,206.59471720000147,206.59471720000147,,left,-9.0,0,0,0.0792176999966614,677501,001,2023-09-07_11h09.48.820,adaptive_staircase,2023.1.3,60.045995233065234,
4,0,4,0,4,1,10.0,206.69393319999654,207.19398869999713,207.19398869999713,207.19398869999713,207.49333209999895,right,10.0,0,0,0.3389353000020492,677501,001,2023-09-07_11h09.48.820,adaptive_staircase,2023.1.3,60.045995233065234,
4,0,4,0,5,1,11.0,207.56014760000107,208.05962620000355,208.05962620000355,208.05962620000355,,right,11.0,1,1,0.181865899998229,677501,001,2023-09-07_11h09.48.820,adaptive_staircase,2023.1.3,60.045995233065234,
4,0,4,0,6,1,11.0,208.25919189999695,208.75901349999913,208.75901349999913,208.75901349999913,,left,-11.0,0,0,0.18789509999623988,677501,001,2023-09-07_11h09.48.820,adaptive_staircase,2023.1.3,60.045995233065234,
4,0,4,0,7,1,12.0,208.97528130000137,209.47522539999773,209.47522539999773,209.47522539999773,,left,-12.0,0,0,0.1919590999968932,677501,001,2023-09-07_11h09.48.820,adaptive_staircase,2023.1.3,60.045995233065234,
4,0,4,0,8,1,13.0,209.6911945000029,210.1909633000032,210.1909633000032,210.1909633000032,,left,-13.0,0,0,0.17800800000259187,677501,001,2023-09-07_11h09.48.820,adaptive_staircase,2023.1.3,60.045995233065234,
4,0,4,0,9,1,14.0,210.39092459999665,210.89052320000337,210.89052320000337,210.89052320000337,,left,-14.0,0,0,0.09013319999939995,677501,001,2023-09-07_11h09.48.820,adaptive_staircase,2023.1.3,60.045995233065234,
4,0,4,0,10,1,15.0,211.00679539999692,211.5064962999968,211.5064962999968,211.5064962999968,,left,-15.0,0,0,0.046007500000996515,677501,001,2023-09-07_11h09.48.820,adaptive_staircase,2023.1.3,60.045995233065234,
4,0,4,0,11,1,16.0,211.57347319999826,212.0728562000004,212.0728562000004,212.0728562000004,,left,-16.0,1,1,0.22950359999958891,677501,001,2023-09-07_11h09.48.820,adaptive_staircase,2023.1.3,60.045995233065234,
4,0,4,0,12,1,16.0,212.32213500000216,212.82202849999885,212.82202849999885,212.82202849999885,213.1214101000005,right,16.0,1,1,1.0558732999998028,677501,001,2023-09-07_11h09.48.820,adaptive_staircase,2023.1.3,60.045995233065234,
4,0,4,0,13,1,16.0,213.9041722999973,214.40378200000123,214.40378200000123,214.40378200000123,214.7031685999973,left,-16.0,0,0,5.796383099994273,677501,001,2023-09-07_11h09.48.820,adaptive_staircase,2023.1.3,60.045995233065234,
4,0,4,0,14,1,17.0,220.2316056999989,220.73151360000338,220.73151360000338,220.73151360000338,221.030711899999,left,-17.0,0,0,0.984959199995501,677501,001,2023-09-07_11h09.48.820,adaptive_staircase,2023.1.3,60.045995233065234,
4,0,4,0,15,1,18.0,221.74690230000124,222.24654120000196,222.24654120000196,222.24654120000196,222.5460871999967,right,18.0,1,1,0.871525800001109,677501,001,2023-09-07_11h09.48.820,adaptive_staircase,2023.1.3,60.045995233065234,
4,0,4,0,16,1,18.0,223.14545160000125,223.6450687999968,223.6450687999968,223.6450687999968,223.9446300999989,right,18.0,0,0,1.0870678999999654,677501,001,2023-09-07_11h09.48.820,adaptive_staircase,2023.1.3,60.045995233065234,
4,0,4,0,17,1,19.0,224.7604449999999,225.26077169999917,225.26077169999917,225.26077169999917,225.55997899999784,right,19.0,1,1,0.8930470999985118,677501,001,2023-09-07_11h09.48.820,adaptive_staircase,2023.1.3,60.045995233065234,
4,0,4,0,18,1,19.0,226.17599499999778,226.67568380000012,226.67568380000012,226.67568380000012,226.9750101000027,right,19.0,1,1,0.3778604999970412,677501,001,2023-09-07_11h09.48.820,adaptive_staircase,2023.1.3,60.045995233065234,
4,0,4,0,19,1,19.0,227.07509640000353,227.57492959999945,227.57492959999945,227.57492959999945,,right,19.0,1,1,0.045148600001994055,677501,001,2023-09-07_11h09.48.820,adaptive_staircase,2023.1.3,60.045995233065234,
4,0,4,0,20,0.5,18.0,227.64117570000235,228.14087100000324,228.14087100000324,228.14087100000324,228.44040600000153,left,-18.0,0,0,1.2420668000049773,677501,001,2023-09-07_11h09.48.820,adaptive_staircase,2023.1.3,60.045995233065234,
4,0,4,0,21,0.5,18.5,229.40630919999967,229.90586140000232,229.90586140000232,229.90586140000232,,right,18.5,1,1,0.03499949999968521,677501,001,2023-09-07_11h09.48.820,adaptive_staircase,2023.1.3,60.045995233065234,
4,0,4,0,22,0.5,18.5,229.972577499997,230.47237199999654,230.47237199999654,230.47237199999654,230.77165870000317,right,18.5,1,1,0.9249236999967252,677501,001,2023-09-07_11h09.48.820,adaptive_staircase,2023.1.3,60.045995233065234,
4,0,4,0,23,0.5,18.5,231.42104510000354,231.92056120000052,231.92056120000052,231.92056120000052,232.22048950000317,left,-18.5,0,0,3.031659699998272,677501,001,2023-09-07_11h09.48.820,adaptive_staircase,2023.1.3,60.045995233065234,
4,0,4,0,24,0.5,19.0,234.98445150000043,235.48437350000313,235.48437350000313,235.48437350000313,235.78381139999692,left,-19.0,0,0,2.0693754000021727,677501,001,2023-09-07_11h09.48.820,adaptive_staircase,2023.1.3,60.045995233065234,
4,0,4,0,25,0.5,19.5,237.58192699999927,238.08171440000297,238.08171440000297,238.08171440000297,238.38140179999755,right,19.5,1,1,0.5720026999988477,677501,001,2023-09-07_11h09.48.820,adaptive_staircase,2023.1.3,60.045995233065234,
4,0,4,0,26,0.5,19.5,238.6810992000028,239.18076540000038,239.18076540000038,239.18076540000038,239.480435700003,left,-19.5,0,0,0.32943410000007134,677501,001,2023-09-07_11h09.48.820,adaptive_staircase,2023.1.3,60.045995233065234,
4,0,4,0,27,0.5,20.0,239.53015389999928,240.02998690000095,240.02998690000095,240.02998690000095,240.32962209999823,left,-20.0,0,0,0.3814125999924727,677501,001,2023-09-07_11h09.48.820,adaptive_staircase,2023.1.3,60.045995233065234,
4,0,4,0,28,0.5,20.0,240.42937489999895,240.92884449999838,240.92884449999838,240.92884449999838,,left,-20.0,0,0,0.24973779999709222,677501,001,2023-09-07_11h09.48.820,adaptive_staircase,2023.1.3,60.045995233065234,
4,0,4,0,29,0.5,20.0,241.19535709999764,241.6948823999992,241.6948823999992,241.6948823999992,241.9945039000013,right,20.0,1,1,0.37127469999541063,677501,001,2023-09-07_11h09.48.820,adaptive_staircase,2023.1.3,60.045995233065234,
4,0,4,0,30,0.5,20.0,242.0943993999972,242.59418379999988,242.59418379999988,242.59418379999988,242.89361910000298,left,-20.0,0,0,0.3136746999953175,677501,001,2023-09-07_11h09.48.820,adaptive_staircase,2023.1.3,60.045995233065234,
4,0,4,0,31,0.5,20.0,242.92691259999992,243.42680100000143,243.42680100000143,243.42680100000143,243.72625400000106,right,20.0,0,0,0.9278728999997838,677501,001,2023-09-07_11h09.48.820,adaptive_staircase,2023.1.3,60.045995233065234,
4,0,4,0,32,0.5,20.0,244.37571339999704,244.87524739999935,244.87524739999935,244.87524739999935,245.17510510000284,left,-20.0,1,1,0.3111709000004339,677501,001,2023-09-07_11h09.48.820,adaptive_staircase,2023.1.3,60.045995233065234,
4,0,4,0,33,0.5,20.0,245.20845920000284,245.7078238000031,245.7078238000031,245.7078238000031,,left,-20.0,1,1,0.1431248999942909,677501,001,2023-09-07_11h09.48.820,adaptive_staircase,2023.1.3,60.045995233065234,
4,0,4,0,34,0.5,20.0,245.87416720000328,246.37407430000167,246.37407430000167,246.37407430000167,,left,-20.0,1,1,0.14605020000453806,677501,001,2023-09-07_11h09.48.820,adaptive_staircase,2023.1.3,60.045995233065234,
4,0,4,0,35,0.5,19.5,246.5405763000017,247.0399239000035,247.0399239000035,247.0399239000035,,right,19.5,1,1,0.1587165999953868,677501,001,2023-09-07_11h09.48.820,adaptive_staircase,2023.1.3,60.045995233065234,
4,0,4,0,36,0.5,19.5,247.2229387999978,247.7226875999986,247.7226875999986,247.7226875999986,,left,-19.5,0,0,0.1355639000030351,677501,001,2023-09-07_11h09.48.820,adaptive_staircase,2023.1.3,60.045995233065234,
4,0,4,0,37,0.5,20.0,247.8891341999988,248.3886343999984,248.3886343999984,248.3886343999984,,left,-20.0,0,0,0.08210859999235254,677501,001,2023-09-07_11h09.48.820,adaptive_staircase,2023.1.3,60.045995233065234,
4,0,4,0,38,0.5,20.0,248.48855670000194,248.98816739999893,248.98816739999893,248.98816739999893,,left,-20.0,0,0,0.1336369999917224,677501,001,2023-09-07_11h09.48.820,adaptive_staircase,2023.1.3,60.045995233065234,
4,0,4,0,39,0.5,20.0,249.15459230000124,249.6542926999973,249.6542926999973,249.6542926999973,,left,-20.0,0,0,0.06790929999260698,677501,001,2023-09-07_11h09.48.820,adaptive_staircase,2023.1.3,60.045995233065234,
4,0,4,0,40,0.5,20.0,249.7541756999999,250.2536792000028,250.2536792000028,250.2536792000028,,right,20.0,1,1,0.09910029999446124,677501,001,2023-09-07_11h09.48.820,adaptive_staircase,2023.1.3,60.045995233065234,
4,0,4,0,41,0.5,20.0,250.37083020000136,250.86983070000133,250.86983070000133,250.88632769999822,,left,-20.0,0,0,0.08919759999844246,677501,001,2023-09-07_11h09.48.820,adaptive_staircase,2023.1.3,60.045995233065234,
4,0,4,0,42,0.5,20.0,250.986135500003,251.48576889999822,251.48576889999822,251.48576889999822,251.78516359999776,right,20.0,1,1,0.42728409999836003,677501,001,2023-09-07_11h09.48.820,adaptive_staircase,2023.1.3,60.045995233065234,
4,0,4,0,43,0.5,20.0,251.9353459999984,252.43506049999996,252.43506049999996,252.43506049999996,,right,20.0,1,1,0.056517700002586935,677501,001,2023-09-07_11h09.48.820,adaptive_staircase,2023.1.3,60.045995233065234,
4,0,4,0,44,0.5,20.0,252.51809689999936,253.01783740000246,253.01783740000246,253.01783740000246,,left,-20.0,1,1,0.20303299999795854,677501,001,2023-09-07_11h09.48.820,adaptive_staircase,2023.1.3,60.045995233065234,
4,0,4,0,45,0.5,19.5,253.2509171999991,253.750438199997,253.750438199997,253.750438199997,,right,19.5,0,0,0.1787112000019988,677501,001,2023-09-07_11h09.48.820,adaptive_staircase,2023.1.3,60.045995233065234,
4,0,4,0,46,0.5,20.0,253.94998099999793,254.44961260000127,254.44961260000127,254.44961260000127,,left,-20.0,1,1,0.09636039999895729,677501,001,2023-09-07_11h09.48.820,adaptive_staircase,2023.1.3,60.045995233065234,
4,0,4,0,47,0.5,20.0,254.5663360000035,255.0658650999976,255.0658650999976,255.0658650999976,,left,-20.0,0,0,0.19503009999607457,677501,001,2023-09-07_11h09.48.820,adaptive_staircase,2023.1.3,60.045995233065234,
4,0,4,0,48,0.5,20.0,255.28217199999926,255.78252659999998,255.78252659999998,255.78252659999998,256.081368500003,left,-20.0,0,0,1.698067400000582,677501,001,2023-09-07_11h09.48.820,adaptive_staircase,2023.1.3,60.045995233065234,
4,0,4,0,49,0.5,20.0,257.5134118999995,258.01341059999686,258.01341059999686,258.01341059999686,,left,-20.0,0,0,0.24466609999944922,677501,001,2023-09-07_11h09.48.820,adaptive_staircase,2023.1.3,60.045995233065234,
4,0,4,0,,,,,,,,,,,,,,677501,001,2023-09-07_11h09.48.820,adaptive_staircase,2023.1.3,60.045995233065234,
5,0,5,0,0,2,10.0,258.27943629999936,258.77910469999915,258.77910469999915,258.77910469999915,,left,-10.0,1,1,0.06678359999932582,677501,001,2023-09-07_11h09.48.820,adaptive_staircase,2023.1.3,60.045995233065234,
5,0,5,0,1,2,8.0,258.8624531000023,259.3617477000007,259.3617477000007,259.3617477000007,,right,8.0,1,1,0.11759939999319613,677501,001,2023-09-07_11h09.48.820,adaptive_staircase,2023.1.3,60.045995233065234,
5,0,5,0,2,2,6.0,259.5117509999982,260.01216069999646,260.01216069999646,260.01216069999646,,right,6.0,1,1,0.06867219999548979,677501,001,2023-09-07_11h09.48.820,adaptive_staircase,2023.1.3,60.045995233065234,
5,0,5,0,3,2,4.0,260.1112171999994,260.6105759999991,260.6105759999991,260.6105759999991,,right,4.0,1,1,0.0665724999998929,677501,001,2023-09-07_11h09.48.820,adaptive_staircase,2023.1.3,60.045995233065234,
5,0,5,0,4,2,2.0,260.69379109999863,261.19351959999767,261.19351959999767,261.19351959999767,,right,2.0,1,1,0.06746529999509221,677501,001,2023-09-07_11h09.48.820,adaptive_staircase,2023.1.3,60.045995233065234,
,,,,,,,261.29327499999636,261.79305139999633,261.79305139999633,261.79305139999633,262.0924887000001,,,,,,,,,,,,
