trials.thisRepN,trials.thisTrialN,trials.thisN,trials.thisIndex,fixation.started,key_resp.started,fixation.stopped,key_resp.keys,key_resp.corr,key_resp.rt,key_resp.duration,tilt,participant,session,date,expName,psychopyVersion,frameRate,
0,0,0,0,19.60311579995323,20.653187399962917,20.657615300035104,up,1,2.680034999968484,None,0,964250,001,2023-09-14_18h43.18.666,orientation discrimination task,2023.1.3,60.067347505375984,
1,0,1,0,23.358779400005005,24.347978699952364,24.364620200009085,down,0,1.4306645999895409,None,0,964250,001,2023-09-14_18h43.18.666,orientation discrimination task,2023.1.3,60.067347505375984,
2,0,2,0,25.812968999962322,26.812707999954,26.812707999954,up,1,0.991740999976173,None,0,964250,001,2023-09-14_18h43.18.666,orientation discrimination task,2023.1.3,60.067347505375984,
3,0,3,0,27.84064509999007,28.843944899970666,28.843944899970666,up,0,0.5968612999422476,None,-4,964250,001,2023-09-14_18h43.18.666,orientation discrimination task,2023.1.3,60.067347505375984,
4,0,4,0,29.461533699999563,30.459065999952145,30.475373400026,down,1,1.7541482000378892,None,3,964250,001,2023-09-14_18h43.18.666,orientation discrimination task,2023.1.3,60.067347505375984,
5,0,5,0,32.24055039999075,33.239544600015506,33.239544600015506,up,0,0.594568399945274,None,-3,964250,001,2023-09-14_18h43.18.666,orientation discrimination task,2023.1.3,60.067347505375984,
6,0,6,0,33.86460089997854,34.85468089999631,34.87137529999018,up,0,0.5342158999992535,None,1,964250,001,2023-09-14_18h43.18.666,orientation discrimination task,2023.1.3,60.067347505375984,
7,0,7,0,35.42550240003038,36.419735300005414,36.43639379995875,up,1,0.36626559996511787,None,0,964250,001,2023-09-14_18h43.18.666,orientation discrimination task,2023.1.3,60.067347505375984,
8,0,8,0,36.8027833000524,37.80182809999678,37.818365399958566,up,1,0.3335499999811873,None,0,964250,001,2023-09-14_18h43.18.666,orientation discrimination task,2023.1.3,60.067347505375984,
9,0,9,0,38.16808279999532,39.16770930006169,39.16770930006169,down,1,0.16035489994101226,None,1,964250,001,2023-09-14_18h43.18.666,orientation discrimination task,2023.1.3,60.067347505375984,
10,0,10,0,39.35051719995681,40.34961110004224,40.34961110004224,up,0,0.009404200012795627,None,2,964250,001,2023-09-14_18h43.18.666,orientation discrimination task,2023.1.3,60.067347505375984,
11,0,11,0,40.38570049998816,41.381840000045486,41.398456100025214,up,1,0.27947529999073595,None,0,964250,001,2023-09-14_18h43.18.666,orientation discrimination task,2023.1.3,60.067347505375984,
12,0,12,0,41.682813900057226,42.68089059996419,42.69747410004493,up,0,0.2752230999758467,None,2,964250,001,2023-09-14_18h43.18.666,orientation discrimination task,2023.1.3,60.067347505375984,
13,0,13,0,42.9801301000407,43.97966730000917,43.97966730000917,up,0,0.29892430000472814,None,3,964250,001,2023-09-14_18h43.18.666,orientation discrimination task,2023.1.3,60.067347505375984,
14,0,14,0,44.29555200005416,45.29512350005098,45.29512350005098,up,1,0.11669309996068478,None,0,964250,001,2023-09-14_18h43.18.666,orientation discrimination task,2023.1.3,60.067347505375984,
15,0,15,0,45.433458099956624,46.42718760005664,46.44386200001463,down,1,0.1895183000015095,None,3,964250,001,2023-09-14_18h43.18.666,orientation discrimination task,2023.1.3,60.067347505375984,
16,0,16,0,46.64363850001246,47.64283140003681,47.64283140003681,up,0,0.11649609997402877,None,-2,964250,001,2023-09-14_18h43.18.666,orientation discrimination task,2023.1.3,60.067347505375984,
17,0,17,0,47.775888100033626,48.77533470001072,48.77533470001072,down,1,0.8530222000554204,None,2,964250,001,2023-09-14_18h43.18.666,orientation discrimination task,2023.1.3,60.067347505375984,
18,0,18,0,49.658484300016426,50.657353200018406,50.67404059995897,up,0,0.6226735000964254,None,-4,964250,001,2023-09-14_18h43.18.666,orientation discrimination task,2023.1.3,60.067347505375984,
19,0,19,0,51.30661460000556,52.30585400003474,52.30585400003474,down,0,0.31834350002463907,None,0,964250,001,2023-09-14_18h43.18.666,orientation discrimination task,2023.1.3,60.067347505375984,
20,0,20,0,52.655447700060904,53.65462469996419,53.65462469996419,down,0,0.35564700001850724,None,0,964250,001,2023-09-14_18h43.18.666,orientation discrimination task,2023.1.3,60.067347505375984,
21,0,21,0,54.03730790002737,55.036601300002076,55.036601300002076,down,1,0.14385009999386966,None,-5,964250,001,2023-09-14_18h43.18.666,orientation discrimination task,2023.1.3,60.067347505375984,
22,0,22,0,55.20300139999017,56.2022156000603,56.2022156000603,down,1,0.1884361000265926,None,-2,964250,001,2023-09-14_18h43.18.666,orientation discrimination task,2023.1.3,60.067347505375984,
23,0,23,0,56.41840520000551,57.41798749996815,57.41798749996815,down,0,0.013082699966616929,None,0,964250,001,2023-09-14_18h43.18.666,orientation discrimination task,2023.1.3,60.067347505375984,
24,0,24,0,57.466673900024034,58.46674669999629,58.46674669999629,down,0,0.11205859994515777,None,0,964250,001,2023-09-14_18h43.18.666,orientation discrimination task,2023.1.3,60.067347505375984,
25,0,25,0,58.600986600038595,59.5990054999711,59.61569480004255,down,1,0.008594300015829504,None,2,964250,001,2023-09-14_18h43.18.666,orientation discrimination task,2023.1.3,60.067347505375984,
26,0,26,0,59.63362520001829,60.631300700013526,60.64799009996932,up,1,0.0640327000292018,None,0,964250,001,2023-09-14_18h43.18.666,orientation discrimination task,2023.1.3,60.067347505375984,
27,0,27,0,60.71846070000902,61.71370850002859,61.73033279995434,up,0,0.4720204999903217,None,4,964250,001,2023-09-14_18h43.18.666,orientation discrimination task,2023.1.3,60.067347505375984,
28,0,28,0,62.21301049995236,63.21224090002943,63.21224090002943,up,1,0.6503634999971837,None,0,964250,001,2023-09-14_18h43.18.666,orientation discrimination task,2023.1.3,60.067347505375984,
29,0,29,0,63.894756000023335,64.89402120001614,64.89402120001614,up,0,0.36714939994271845,None,4,964250,001,2023-09-14_18h43.18.666,orientation discrimination task,2023.1.3,60.067347505375984,
30,0,30,0,65.29451220005285,66.29305330000352,66.30964870005846,down,0,0.20307960000354797,None,0,964250,001,2023-09-14_18h43.18.666,orientation discrimination task,2023.1.3,60.067347505375984,
31,0,31,0,66.52592629997525,67.52485719998367,67.54165000002831,up,1,0.7498856999445707,None,0,964250,001,2023-09-14_18h43.18.666,orientation discrimination task,2023.1.3,60.067347505375984,
32,0,32,0,68.29904399998486,69.2899154999759,69.30669040000066,down,0,0.27141929999925196,None,0,964250,001,2023-09-14_18h43.18.666,orientation discrimination task,2023.1.3,60.067347505375984,
33,0,33,0,69.58954349998385,70.5887958999956,70.5887958999956,down,1,0.6699578000698239,None,-3,964250,001,2023-09-14_18h43.18.666,orientation discrimination task,2023.1.3,60.067347505375984,
34,0,34,0,71.28802540001925,72.28715580003336,72.28715580003336,down,0,0.3702006000094116,None,0,964250,001,2023-09-14_18h43.18.666,orientation discrimination task,2023.1.3,60.067347505375984,
35,0,35,0,72.68666490004398,73.68588670005556,73.68588670005556,up,1,0.21339279995299876,None,0,964250,001,2023-09-14_18h43.18.666,orientation discrimination task,2023.1.3,60.067347505375984,
36,0,36,0,73.91889049997553,74.91806549998,74.91806549998,up,1,0.23357099993154407,None,0,964250,001,2023-09-14_18h43.18.666,orientation discrimination task,2023.1.3,60.067347505375984,
37,0,37,0,75.17658359999768,76.16687539999839,76.1835420000134,down,0,0.8024416998960078,None,0,964250,001,2023-09-14_18h43.18.666,orientation discrimination task,2023.1.3,60.067347505375984,
38,0,38,0,77.01192459999584,77.99843369994778,78.01507149997633,up,1,0.43416030006483197,None,0,964250,001,2023-09-14_18h43.18.666,orientation discrimination task,2023.1.3,60.067347505375984,
39,0,39,0,78.46449479996227,79.46371779998299,79.46371779998299,up,0,0.5297457999549806,None,3,964250,001,2023-09-14_18h43.18.666,orientation discrimination task,2023.1.3,60.067347505375984,
40,0,40,0,80.0224911000114,81.0125973999966,81.02914849994704,down,0,0.45118669990915805,None,0,964250,001,2023-09-14_18h43.18.666,orientation discrimination task,2023.1.3,60.067347505375984,
41,0,41,0,81.4993404999841,82.4944942999864,82.51123029994778,down,0,0.38091580010950565,None,0,964250,001,2023-09-14_18h43.18.666,orientation discrimination task,2023.1.3,60.067347505375984,
42,0,42,0,82.90381319995504,83.89342990005389,83.9098939000396,up,0,0.29319150000810623,None,-5,964250,001,2023-09-14_18h43.18.666,orientation discrimination task,2023.1.3,60.067347505375984,
43,0,43,0,84.2172930999659,85.20872780005448,85.22535129997414,up,1,0.334646699950099,None,0,964250,001,2023-09-14_18h43.18.666,orientation discrimination task,2023.1.3,60.067347505375984,
44,0,44,0,85.57827830000315,86.57409290003125,86.59078660001978,down,1,0.2989405000116676,None,1,964250,001,2023-09-14_18h43.18.666,orientation discrimination task,2023.1.3,60.067347505375984,
45,0,45,0,86.89483510004357,87.88952760002576,87.90612509998027,down,0,0.30443979997653514,None,0,964250,001,2023-09-14_18h43.18.666,orientation discrimination task,2023.1.3,60.067347505375984,
46,0,46,0,88.23794829996768,89.2384232999757,89.2384232999757,up,0,0.21144029998686165,None,-3,964250,001,2023-09-14_18h43.18.666,orientation discrimination task,2023.1.3,60.067347505375984,
47,0,47,0,89.4895467000315,90.48730679997243,90.50404889998026,up,1,0.3204423999413848,None,0,964250,001,2023-09-14_18h43.18.666,orientation discrimination task,2023.1.3,60.067347505375984,
48,0,48,0,90.85187050001696,91.83602819999214,91.85278479999397,down,1,0.23791439994238317,None,1,964250,001,2023-09-14_18h43.18.666,orientation discrimination task,2023.1.3,60.067347505375984,
49,0,49,0,92.11749650002457,93.11787720001303,93.11787720001303,down,1,0.22781780001241714,None,4,964250,001,2023-09-14_18h43.18.666,orientation discrimination task,2023.1.3,60.067347505375984,
50,0,50,0,93.36912479996681,94.36680790001992,94.38352340005804,up,0,0.29659969999920577,None,-3,964250,001,2023-09-14_18h43.18.666,orientation discrimination task,2023.1.3,60.067347505375984,
51,0,51,0,94.68701140000485,95.68257499998435,95.69932929996867,up,0,0.3849377000005916,None,4,964250,001,2023-09-14_18h43.18.666,orientation discrimination task,2023.1.3,60.067347505375984,
52,0,52,0,96.11919530003797,97.11456160002854,97.13126769999508,down,1,0.2132018000120297,None,-4,964250,001,2023-09-14_18h43.18.666,orientation discrimination task,2023.1.3,60.067347505375984,
53,0,53,0,97.36216340004466,98.36340769997332,98.36340769997332,down,1,0.3766170999733731,None,3,964250,001,2023-09-14_18h43.18.666,orientation discrimination task,2023.1.3,60.067347505375984,
54,0,54,0,98.7829964000266,99.7787497000536,99.79552679997869,up,0,0.20215819997247308,None,-5,964250,001,2023-09-14_18h43.18.666,orientation discrimination task,2023.1.3,60.067347505375984,
55,0,55,0,100.02516169997398,101.02762469998561,101.02762469998561,down,0,0.25972689990885556,None,0,964250,001,2023-09-14_18h43.18.666,orientation discrimination task,2023.1.3,60.067347505375984,
56,0,56,0,101.32004809996579,102.30960989999585,102.3262803000398,down,0,0.028888800065033138,None,0,964250,001,2023-09-14_18h43.18.666,orientation discrimination task,2023.1.3,60.067347505375984,
57,0,57,0,102.36949219997041,103.3586991999764,103.37523550004698,down,1,0.14104380004573613,None,4,964250,001,2023-09-14_18h43.18.666,orientation discrimination task,2023.1.3,60.067347505375984,
58,0,58,0,103.53579130000435,104.5244423999684,104.54084919998422,down,1,0.15190209995489568,None,1,964250,001,2023-09-14_18h43.18.666,orientation discrimination task,2023.1.3,60.067347505375984,
59,0,59,0,104.71569250000175,105.70645679999143,105.72302719997242,down,0,0.01801439991686493,None,0,964250,001,2023-09-14_18h43.18.666,orientation discrimination task,2023.1.3,60.067347505375984,
60,0,60,0,105.76547620003112,106.75544540002011,106.7722237999551,up,1,0.10901250003371388,None,0,964250,001,2023-09-14_18h43.18.666,orientation discrimination task,2023.1.3,60.067347505375984,
61,0,61,0,106.90108470001724,107.90437949995976,107.90437949995976,down,1,0.21876719989813864,None,-5,964250,001,2023-09-14_18h43.18.666,orientation discrimination task,2023.1.3,60.067347505375984,
62,0,62,0,108.16369159996975,109.15325540001504,109.1699250000529,down,0,0.11618190002627671,None,0,964250,001,2023-09-14_18h43.18.666,orientation discrimination task,2023.1.3,60.067347505375984,
63,0,63,0,109.3030081000179,110.30220789997838,110.30220789997838,down,1,0.1040377999888733,None,-4,964250,001,2023-09-14_18h43.18.666,orientation discrimination task,2023.1.3,60.067347505375984,
64,0,64,0,110.44558089994825,111.4344715999905,111.45111609995365,down,0,0.275052799959667,None,0,964250,001,2023-09-14_18h43.18.666,orientation discrimination task,2023.1.3,60.067347505375984,
65,0,65,0,111.74469540000428,112.73317490005866,112.75000740005635,up,1,0.06975679995957762,None,0,964250,001,2023-09-14_18h43.18.666,orientation discrimination task,2023.1.3,60.067347505375984,
66,0,66,0,112.842044500052,113.8323077999521,113.84886060003191,down,0,0.13714250002522022,None,0,964250,001,2023-09-14_18h43.18.666,orientation discrimination task,2023.1.3,60.067347505375984,
67,0,67,0,114.01038220000919,114.99776860000566,115.01455990003888,down,0,0.7928987999912351,None,0,964250,001,2023-09-14_18h43.18.666,orientation discrimination task,2023.1.3,60.067347505375984,
68,0,68,0,115.82546800002456,116.81280990003143,116.8295229000505,down,1,0.7316575000295416,None,1,964250,001,2023-09-14_18h43.18.666,orientation discrimination task,2023.1.3,60.067347505375984,
69,0,69,0,117.57474119996186,118.56131849996746,118.57843220001087,down,1,0.356350899906829,None,3,964250,001,2023-09-14_18h43.18.666,orientation discrimination task,2023.1.3,60.067347505375984,
70,0,70,0,118.94546059996355,119.9433022000594,119.96003840002231,down,1,0.29205439996439964,None,-2,964250,001,2023-09-14_18h43.18.666,orientation discrimination task,2023.1.3,60.067347505375984,
71,0,71,0,120.27510780002922,121.27492770005483,121.27492770005483,down,0,0.25274819997139275,None,0,964250,001,2023-09-14_18h43.18.666,orientation discrimination task,2023.1.3,60.067347505375984,
72,0,72,0,121.55989549995866,122.55704940005671,122.57372190000024,up,0,0.6843832000158727,None,-5,964250,001,2023-09-14_18h43.18.666,orientation discrimination task,2023.1.3,60.067347505375984,
73,0,73,0,123.29857590002939,124.28874460002407,124.3053201000439,up,1,1.0397419000510126,None,0,964250,001,2023-09-14_18h43.18.666,orientation discrimination task,2023.1.3,60.067347505375984,
74,0,74,0,125.3608940000413,126.35361890005879,126.37022469996009,up,0,0.5174500000430271,None,1,964250,001,2023-09-14_18h43.18.666,orientation discrimination task,2023.1.3,60.067347505375984,
75,0,75,0,126.90471749997232,127.90208819997497,127.9187981999712,up,1,0.557077500037849,None,0,964250,001,2023-09-14_18h43.18.666,orientation discrimination task,2023.1.3,60.067347505375984,
76,0,76,0,128.49221840000246,129.48445400001947,129.50114569999278,up,0,0.3764291999395937,None,4,964250,001,2023-09-14_18h43.18.666,orientation discrimination task,2023.1.3,60.067347505375984,
77,0,77,0,129.89962729997933,130.8830103999935,130.8995636999607,down,1,0.33674019994214177,None,4,964250,001,2023-09-14_18h43.18.666,orientation discrimination task,2023.1.3,60.067347505375984,
78,0,78,0,131.26047009998,132.2484201999614,132.26498209999409,up,1,0.3198848000029102,None,0,964250,001,2023-09-14_18h43.18.666,orientation discrimination task,2023.1.3,60.067347505375984,
79,0,79,0,132.6082498000469,133.59713839995675,133.6136498999549,down,1,0.22363230003975332,None,-4,964250,001,2023-09-14_18h43.18.666,orientation discrimination task,2023.1.3,60.067347505375984,
80,0,80,0,133.8564473000588,134.84588639996946,134.8626770999981,up,1,0.31188279995694757,None,0,964250,001,2023-09-14_18h43.18.666,orientation discrimination task,2023.1.3,60.067347505375984,
81,0,81,0,135.18932580004912,136.17817510000896,136.19474810000975,down,0,0.2650255999760702,None,0,964250,001,2023-09-14_18h43.18.666,orientation discrimination task,2023.1.3,60.067347505375984,
82,0,82,0,136.47561309998855,137.47646260005422,137.47646260005422,up,0,0.18380979995708913,None,-2,964250,001,2023-09-14_18h43.18.666,orientation discrimination task,2023.1.3,60.067347505375984,
83,0,83,0,137.69170159997884,138.69259099999908,138.69259099999908,down,1,0.1657751000020653,None,1,964250,001,2023-09-14_18h43.18.666,orientation discrimination task,2023.1.3,60.067347505375984,
84,0,84,0,138.89724359998945,139.89116490003653,139.90790590003598,up,0,0.03006170003209263,None,-3,964250,001,2023-09-14_18h43.18.666,orientation discrimination task,2023.1.3,60.067347505375984,
85,0,85,0,139.9533884000266,140.94017740001436,140.95703890000004,down,0,0.1315284000011161,None,0,964250,001,2023-09-14_18h43.18.666,orientation discrimination task,2023.1.3,60.067347505375984,
86,0,86,0,141.10214470000938,142.08895410003606,142.1055293000536,up,1,0.0804606000892818,None,0,964250,001,2023-09-14_18h43.18.666,orientation discrimination task,2023.1.3,60.067347505375984,
87,0,87,0,142.19147459999658,143.18786289996933,143.20443110005,down,0,0.13253009994514287,None,0,964250,001,2023-09-14_18h43.18.666,orientation discrimination task,2023.1.3,60.067347505375984,
88,0,88,0,143.3405568000162,144.33686849998776,144.3534389999695,up,0,0.03235100000165403,None,-5,964250,001,2023-09-14_18h43.18.666,orientation discrimination task,2023.1.3,60.067347505375984,
89,0,89,0,144.38883189996704,145.3857872999506,145.40249470004346,down,1,0.1360082000028342,None,1,964250,001,2023-09-14_18h43.18.666,orientation discrimination task,2023.1.3,60.067347505375984,
90,0,90,0,145.55457399995066,146.5513854000019,146.5680480999872,down,0,0.4242659999290481,None,0,964250,001,2023-09-14_18h43.18.666,orientation discrimination task,2023.1.3,60.067347505375984,
91,0,91,0,147.00443279999308,147.9999881000258,148.01674380002078,up,0,0.3493025000207126,None,-3,964250,001,2023-09-14_18h43.18.666,orientation discrimination task,2023.1.3,60.067347505375984,
92,0,92,0,148.3690818999894,149.3654639000306,149.38200159999542,up,0,0.23733480006922036,None,3,964250,001,2023-09-14_18h43.18.666,orientation discrimination task,2023.1.3,60.067347505375984,
93,0,93,0,149.64124090003315,150.631002399954,150.64753780001774,up,0,0.10921340005006641,None,-5,964250,001,2023-09-14_18h43.18.666,orientation discrimination task,2023.1.3,60.067347505375984,
94,0,94,0,150.76629890000913,151.76316950004548,151.7798277999973,up,1,0.10278549999929965,None,0,964250,001,2023-09-14_18h43.18.666,orientation discrimination task,2023.1.3,60.067347505375984,
95,0,95,0,151.89854079997167,152.8955191000132,152.9120684999507,down,0,0.14603359997272491,None,0,964250,001,2023-09-14_18h43.18.666,orientation discrimination task,2023.1.3,60.067347505375984,
96,0,96,0,153.06453139998484,154.06103790004272,154.0776509999996,up,1,0.14265539997722954,None,0,964250,001,2023-09-14_18h43.18.666,orientation discrimination task,2023.1.3,60.067347505375984,
97,0,97,0,154.22994109999854,155.22661869996227,155.2432620000327,down,0,0.17190850002225488,None,0,964250,001,2023-09-14_18h43.18.666,orientation discrimination task,2023.1.3,60.067347505375984,
98,0,98,0,155.42885430005845,156.42582100001164,156.44259810005315,up,1,0.2505535000236705,None,0,964250,001,2023-09-14_18h43.18.666,orientation discrimination task,2023.1.3,60.067347505375984,
99,0,99,0,156.70461540005635,157.69127589999698,157.7079611000372,down,0,0.1455749999731779,None,0,964250,001,2023-09-14_18h43.18.666,orientation discrimination task,2023.1.3,60.067347505375984,
100,0,100,0,157.86837459995877,158.85682039998937,158.87360319995787,up,1,0.13110769994091243,None,0,964250,001,2023-09-14_18h43.18.666,orientation discrimination task,2023.1.3,60.067347505375984,
101,0,101,0,159.01865530002397,160.00570470001549,160.02247279998846,down,0,0.08253989997319877,None,0,964250,001,2023-09-14_18h43.18.666,orientation discrimination task,2023.1.3,60.067347505375984,
102,0,102,0,160.11576379998587,161.10473799996544,161.12133520003408,up,0,0.23452800000086427,None,-4,964250,001,2023-09-14_18h43.18.666,orientation discrimination task,2023.1.3,60.067347505375984,
103,0,103,0,161.37941639998462,162.37012700003106,162.38677730003837,down,1,0.045170299941673875,None,-3,964250,001,2023-09-14_18h43.18.666,orientation discrimination task,2023.1.3,60.067347505375984,
104,0,104,0,162.44615089998115,163.43577580002602,163.45258859999012,down,1,0.41208309994544834,None,1,964250,001,2023-09-14_18h43.18.666,orientation discrimination task,2023.1.3,60.067347505375984,
105,0,105,0,163.87750359997153,164.86781059997156,164.88454919995274,down,0,0.09977520001120865,None,0,964250,001,2023-09-14_18h43.18.666,orientation discrimination task,2023.1.3,60.067347505375984,
106,0,106,0,164.99386889999732,165.98358700005338,166.00017410004511,down,0,0.09408020006958395,None,0,964250,001,2023-09-14_18h43.18.666,orientation discrimination task,2023.1.3,60.067347505375984,
107,0,107,0,166.1103150000563,167.09908890002407,167.11593480000738,down,0,0.017296899924986064,None,0,964250,001,2023-09-14_18h43.18.666,orientation discrimination task,2023.1.3,60.067347505375984,
108,0,108,0,167.14335340005346,168.1315886999946,168.148177199997,down,0,0.03977669996675104,None,0,964250,001,2023-09-14_18h43.18.666,orientation discrimination task,2023.1.3,60.067347505375984,
109,0,109,0,168.21440369996708,169.21396920003463,169.21396920003463,up,0,0.5762423999840394,None,-4,964250,001,2023-09-14_18h43.18.666,orientation discrimination task,2023.1.3,60.067347505375984,
110,0,110,0,169.82376040006056,170.81235430005472,170.82900170003995,up,1,0.05150920001324266,None,0,964250,001,2023-09-14_18h43.18.666,orientation discrimination task,2023.1.3,60.067347505375984,
111,0,111,0,170.9055552999489,171.89462789997924,171.91147930000443,down,0,0.53799079998862,None,0,964250,001,2023-09-14_18h43.18.666,orientation discrimination task,2023.1.3,60.067347505375984,
112,0,112,0,172.47021589998621,173.45993759995326,173.47639600001276,down,0,0.7854166999459267,None,0,964250,001,2023-09-14_18h43.18.666,orientation discrimination task,2023.1.3,60.067347505375984,
113,0,113,0,174.28903159999754,175.27492270001676,175.29146310000215,up,1,0.34743099997285753,None,0,964250,001,2023-09-14_18h43.18.666,orientation discrimination task,2023.1.3,60.067347505375984,
114,0,114,0,175.6555778000038,176.6570708999643,176.6570708999643,down,1,0.4122605000156909,None,4,964250,001,2023-09-14_18h43.18.666,orientation discrimination task,2023.1.3,60.067347505375984,
115,0,115,0,177.09964829997625,178.08896570000798,178.1055483999662,up,1,0.396518100053072,None,0,964250,001,2023-09-14_18h43.18.666,orientation discrimination task,2023.1.3,60.067347505375984,
116,0,116,0,178.5219128000317,179.52075879997574,179.53752999997232,down,0,0.1706708000274375,None,0,964250,001,2023-09-14_18h43.18.666,orientation discrimination task,2023.1.3,60.067347505375984,
117,0,117,0,179.7301494999556,180.7198245000327,180.73646230006125,up,1,0.34320639993529767,None,0,964250,001,2023-09-14_18h43.18.666,orientation discrimination task,2023.1.3,60.067347505375984,
118,0,118,0,181.09520209999755,182.08514980005566,182.10175999999046,down,0,0.21023239998612553,None,0,964250,001,2023-09-14_18h43.18.666,orientation discrimination task,2023.1.3,60.067347505375984,
119,0,119,0,182.32923759997357,183.31733500002883,183.33404510002583,up,0,0.1446340000256896,None,-4,964250,001,2023-09-14_18h43.18.666,orientation discrimination task,2023.1.3,60.067347505375984,
120,0,120,0,183.49610270000994,184.49955700000282,184.49955700000282,down,1,0.11462650005705655,None,4,964250,001,2023-09-14_18h43.18.666,orientation discrimination task,2023.1.3,60.067347505375984,
121,0,121,0,184.64446750003844,185.63197700004093,185.64849529997446,up,0,0.057688700035214424,None,2,964250,001,2023-09-14_18h43.18.666,orientation discrimination task,2023.1.3,60.067347505375984,
122,0,122,0,185.72460620000493,186.71412919997238,186.7307099000318,down,0,0.046864000032655895,None,0,964250,001,2023-09-14_18h43.18.666,orientation discrimination task,2023.1.3,60.067347505375984,
123,0,123,0,186.79135309997946,187.77986689994577,187.79659729998093,down,0,0.7475401000119746,None,0,964250,001,2023-09-14_18h43.18.666,orientation discrimination task,2023.1.3,60.067347505375984,
124,0,124,0,188.55574410001282,189.5449008999858,189.56162819999736,up,0,0.3049425999633968,None,-3,964250,001,2023-09-14_18h43.18.666,orientation discrimination task,2023.1.3,60.067347505375984,
125,0,125,0,189.88777939998545,190.877039300045,190.89376320003066,up,0,1.0281441999832168,None,-2,964250,001,2023-09-14_18h43.18.666,orientation discrimination task,2023.1.3,60.067347505375984,
126,0,126,0,191.93723899999168,192.92501660005655,192.94184630003292,up,0,0.7917947999667376,None,-4,964250,001,2023-09-14_18h43.18.666,orientation discrimination task,2023.1.3,60.067347505375984,
127,0,127,0,193.75381380005274,194.7401784999529,194.75664489995688,up,0,0.509493299992755,None,-4,964250,001,2023-09-14_18h43.18.666,orientation discrimination task,2023.1.3,60.067347505375984,
128,0,128,0,195.28553860005923,196.27226919995155,196.28865869995207,up,0,0.3652318000094965,None,-5,964250,001,2023-09-14_18h43.18.666,orientation discrimination task,2023.1.3,60.067347505375984,
129,0,129,0,196.66932999994606,197.6706269000424,197.6706269000424,down,1,0.23589030001312494,None,1,964250,001,2023-09-14_18h43.18.666,orientation discrimination task,2023.1.3,60.067347505375984,
130,0,130,0,197.94772970001213,198.93610169994645,198.95277850003913,up,1,0.19484450004529208,None,0,964250,001,2023-09-14_18h43.18.666,orientation discrimination task,2023.1.3,60.067347505375984,
131,0,131,0,199.1657468000194,200.15161299996544,200.16832050005905,down,0,0.3367823000298813,None,0,964250,001,2023-09-14_18h43.18.666,orientation discrimination task,2023.1.3,60.067347505375984,
132,0,132,0,200.5271448000567,201.5169845999917,201.53363409999292,down,0,0.5312740000663325,None,0,964250,001,2023-09-14_18h43.18.666,orientation discrimination task,2023.1.3,60.067347505375984,
133,0,133,0,202.0761516999919,203.06547749997117,203.08219690003898,up,1,0.16353369993157685,None,0,964250,001,2023-09-14_18h43.18.666,orientation discrimination task,2023.1.3,60.067347505375984,
134,0,134,0,203.25968200003263,204.24779129994567,204.26441279996652,down,1,0.17918229999486357,None,2,964250,001,2023-09-14_18h43.18.666,orientation discrimination task,2023.1.3,60.067347505375984,
135,0,135,0,204.45775079994928,205.4466712999856,205.46334939997178,up,0,0.39886610000394285,None,3,964250,001,2023-09-14_18h43.18.666,orientation discrimination task,2023.1.3,60.067347505375984,
136,0,136,0,205.87295079999603,206.86192789999768,206.87867490004282,down,0,0.1914892999920994,None,0,964250,001,2023-09-14_18h43.18.666,orientation discrimination task,2023.1.3,60.067347505375984,
137,0,137,0,207.08740570000373,208.07758459995966,208.09429689997341,up,0,0.4117506999755278,None,-4,964250,001,2023-09-14_18h43.18.666,orientation discrimination task,2023.1.3,60.067347505375984,
138,0,138,0,208.51984229998197,209.50933829997666,209.54715949995443,up,1,0.706734300008975,None,0,964250,001,2023-09-14_18h43.18.666,orientation discrimination task,2023.1.3,60.067347505375984,
139,0,139,0,210.24723099998664,211.24111359997187,211.25766030000523,down,1,0.049533799989148974,None,-5,964250,001,2023-09-14_18h43.18.666,orientation discrimination task,2023.1.3,60.067347505375984,
140,0,140,0,211.31143470003735,212.30675950006116,212.32348250003997,up,1,0.16189400001894683,None,0,964250,001,2023-09-14_18h43.18.666,orientation discrimination task,2023.1.3,60.067347505375984,
141,0,141,0,212.49422870005947,213.48884899995755,213.50569859996904,down,1,0.41531299997586757,None,-3,964250,001,2023-09-14_18h43.18.666,orientation discrimination task,2023.1.3,60.067347505375984,
142,0,142,0,213.9256858000299,214.9209335000487,214.9376616999507,up,1,0.39090090000536293,None,0,964250,001,2023-09-14_18h43.18.666,orientation discrimination task,2023.1.3,60.067347505375984,
143,0,143,0,215.34069139999337,216.3366362999659,216.3532097999705,down,1,0.2593265000032261,None,-2,964250,001,2023-09-14_18h43.18.666,orientation discrimination task,2023.1.3,60.067347505375984,
144,0,144,0,216.6347166999476,217.63553540001158,217.63553540001158,up,1,1.6528161999303848,None,0,964250,001,2023-09-14_18h43.18.666,orientation discrimination task,2023.1.3,60.067347505375984,
145,0,145,0,219.33470660005696,220.33255970000755,220.34938290005084,up,1,0.30226169992238283,None,0,964250,001,2023-09-14_18h43.18.666,orientation discrimination task,2023.1.3,60.067347505375984,
146,0,146,0,220.67517119995318,221.66492899996229,221.681556000025,down,1,0.01510049996431917,None,2,964250,001,2023-09-14_18h43.18.666,orientation discrimination task,2023.1.3,60.067347505375984,
147,0,147,0,221.70823890005704,222.6974060999928,222.713917999994,up,0,0.6909398999996483,None,4,964250,001,2023-09-14_18h43.18.666,orientation discrimination task,2023.1.3,60.067347505375984,
148,0,148,0,223.42459509999026,224.41236489999574,224.42909850005526,down,1,0.3660938000539318,None,1,964250,001,2023-09-14_18h43.18.666,orientation discrimination task,2023.1.3,60.067347505375984,
149,0,149,0,224.8085627000546,225.79451429995243,225.81109780003317,up,0,0.031398899969644845,None,-3,964250,001,2023-09-14_18h43.18.666,orientation discrimination task,2023.1.3,60.067347505375984,
150,0,150,0,225.8549716999987,226.84341920004226,226.8600561999483,down,0,0.3142240000888705,None,0,964250,001,2023-09-14_18h43.18.666,orientation discrimination task,2023.1.3,60.067347505375984,
151,0,151,0,227.18662169994786,228.17555919999722,228.1920995999826,up,1,0.1059180999873206,None,0,964250,001,2023-09-14_18h43.18.666,orientation discrimination task,2023.1.3,60.067347505375984,
152,0,152,0,228.31975380005315,229.30781170004047,229.3245859000599,down,0,0.15636110003106296,None,0,964250,001,2023-09-14_18h43.18.666,orientation discrimination task,2023.1.3,60.067347505375984,
153,0,153,0,229.50338090001605,230.4895512999501,230.506363100023,down,1,0.5171995999990031,None,-5,964250,001,2023-09-14_18h43.18.666,orientation discrimination task,2023.1.3,60.067347505375984,
154,0,154,0,231.05277690000366,232.05517940002028,232.05517940002028,up,0,0.2859248999739066,None,-3,964250,001,2023-09-14_18h43.18.666,orientation discrimination task,2023.1.3,60.067347505375984,
155,0,155,0,232.3809278999688,233.3706014000345,233.38723690004554,down,0,0.38470980001147836,None,0,964250,001,2023-09-14_18h43.18.666,orientation discrimination task,2023.1.3,60.067347505375984,
156,0,156,0,233.79691679996904,234.78606529999524,234.80257970001549,up,0,0.3389650998869911,None,-3,964250,001,2023-09-14_18h43.18.666,orientation discrimination task,2023.1.3,60.067347505375984,
157,0,157,0,235.16272549994756,236.15141279995441,236.16796109999996,down,1,0.3048438000259921,None,4,964250,001,2023-09-14_18h43.18.666,orientation discrimination task,2023.1.3,60.067347505375984,
158,0,158,0,236.49993809999432,237.50004179996904,237.50004179996904,up,1,0.34855450002942234,None,0,964250,001,2023-09-14_18h43.18.666,orientation discrimination task,2023.1.3,60.067347505375984,
159,0,159,0,237.8775575000327,238.8654758000048,238.88224659999833,down,1,0.2962946998886764,None,-2,964250,001,2023-09-14_18h43.18.666,orientation discrimination task,2023.1.3,60.067347505375984,
160,0,160,0,239.19354240002576,240.1810189000098,240.1976345999865,up,1,2.5187073999550194,None,0,964250,001,2023-09-14_18h43.18.666,orientation discrimination task,2023.1.3,60.067347505375984,
161,0,161,0,242.74354860000312,243.74438229994848,243.74438229994848,down,1,0.17907600000035018,None,3,964250,001,2023-09-14_18h43.18.666,orientation discrimination task,2023.1.3,60.067347505375984,
162,0,162,0,243.95686829998158,244.94310030003544,244.95968790003099,up,1,0.24500029999762774,None,0,964250,001,2023-09-14_18h43.18.666,orientation discrimination task,2023.1.3,60.067347505375984,
163,0,163,0,245.2233543000184,246.22530439996626,246.22530439996626,up,0,0.35672519996296614,None,-3,964250,001,2023-09-14_18h43.18.666,orientation discrimination task,2023.1.3,60.067347505375984,
164,0,164,0,246.62088689999655,247.60739520005882,247.62398789997678,up,0,0.07995020004455,None,1,964250,001,2023-09-14_18h43.18.666,orientation discrimination task,2023.1.3,60.067347505375984,
165,0,165,0,247.71708049997687,248.70636339997873,248.72306680004112,down,0,0.15162439993582666,None,0,964250,001,2023-09-14_18h43.18.666,orientation discrimination task,2023.1.3,60.067347505375984,
166,0,166,0,248.899293399998,249.88854710001033,249.9051825000206,down,1,0.43245700001716614,None,-5,964250,001,2023-09-14_18h43.18.666,orientation discrimination task,2023.1.3,60.067347505375984,
167,0,167,0,250.34940269996878,251.33719680004288,251.3538705999963,up,0,0.2952233999967575,None,-4,964250,001,2023-09-14_18h43.18.666,orientation discrimination task,2023.1.3,60.067347505375984,
168,0,168,0,251.66450269997586,252.6526483000489,252.6692958000349,up,0,0.026237500016577542,None,4,964250,001,2023-09-14_18h43.18.666,orientation discrimination task,2023.1.3,60.067347505375984,
169,0,169,0,252.71273739996832,253.7015690000262,253.71822050004266,up,0,0.32850219996180385,None,-5,964250,001,2023-09-14_18h43.18.666,orientation discrimination task,2023.1.3,60.067347505375984,
170,0,170,0,254.06046619999688,255.0507510000607,255.06707470002584,up,1,0.29159079992678016,None,0,964250,001,2023-09-14_18h43.18.666,orientation discrimination task,2023.1.3,60.067347505375984,
171,0,171,0,255.37697780004237,256.3657575000543,256.38243869994767,up,0,0.3559885999420658,None,3,964250,001,2023-09-14_18h43.18.666,orientation discrimination task,2023.1.3,60.067347505375984,
172,0,172,0,256.7594481999986,257.747744900058,257.7645433000289,up,0,0.25718460010830313,None,-4,964250,001,2023-09-14_18h43.18.666,orientation discrimination task,2023.1.3,60.067347505375984,
173,0,173,0,258.0418134999927,259.030048500048,259.0465778999496,down,0,0.23971880006138235,None,0,964250,001,2023-09-14_18h43.18.666,orientation discrimination task,2023.1.3,60.067347505375984,
174,0,174,0,259.30591090000235,260.2955157000106,260.31226210005116,down,1,0.11958950001280755,None,1,964250,001,2023-09-14_18h43.18.666,orientation discrimination task,2023.1.3,60.067347505375984,
175,0,175,0,260.4547267999733,261.4444595000241,261.4610946000321,down,0,0.08527129993308336,None,0,964250,001,2023-09-14_18h43.18.666,orientation discrimination task,2023.1.3,60.067347505375984,
176,0,176,0,261.56986970000435,262.5600955999689,262.5766754000215,up,1,0.06641700002364814,None,0,964250,001,2023-09-14_18h43.18.666,orientation discrimination task,2023.1.3,60.067347505375984,
177,0,177,0,262.65304480004124,263.6423409000272,263.65900630003307,down,1,0.11210249993018806,None,1,964250,001,2023-09-14_18h43.18.666,orientation discrimination task,2023.1.3,60.067347505375984,
178,0,178,0,263.78519620001316,264.77477370004635,264.7913877000101,up,1,0.025622399989515543,None,0,964250,001,2023-09-14_18h43.18.666,orientation discrimination task,2023.1.3,60.067347505375984,
179,0,179,0,264.8352718000533,265.823825999978,265.84028630005196,up,1,0.25778519990853965,None,0,964250,001,2023-09-14_18h43.18.666,orientation discrimination task,2023.1.3,60.067347505375984,
180,0,180,0,266.1180883999914,267.1058099999791,267.12256909999996,down,0,0.028081799973733723,None,0,964250,001,2023-09-14_18h43.18.666,orientation discrimination task,2023.1.3,60.067347505375984,
181,0,181,0,267.1648281000089,268.1549007999711,268.1714415999595,down,1,0.10122520010918379,None,2,964250,001,2023-09-14_18h43.18.666,orientation discrimination task,2023.1.3,60.067347505375984,
182,0,182,0,268.2978519999888,269.2870023000287,269.3038658000296,down,0,0.018784399959258735,None,0,964250,001,2023-09-14_18h43.18.666,orientation discrimination task,2023.1.3,60.067347505375984,
183,0,183,0,269.34562819998246,270.3362673999509,270.3528108999599,down,0,0.05237209994811565,None,0,964250,001,2023-09-14_18h43.18.666,orientation discrimination task,2023.1.3,60.067347505375984,
184,0,184,0,270.4293034999864,271.4184941999847,271.4350632999558,up,0,0.3711632000049576,None,2,964250,001,2023-09-14_18h43.18.666,orientation discrimination task,2023.1.3,60.067347505375984,
185,0,185,0,271.8267769999802,272.8168321000412,272.8334364000475,up,1,0.10316509997937828,None,0,964250,001,2023-09-14_18h43.18.666,orientation discrimination task,2023.1.3,60.067347505375984,
186,0,186,0,272.9498947999673,273.94932520005386,273.94932520005386,down,0,0.25228250003419816,None,0,964250,001,2023-09-14_18h43.18.666,orientation discrimination task,2023.1.3,60.067347505375984,
187,0,187,0,274.24236200004816,275.23155759996735,275.2481616999721,up,1,0.20224200002849102,None,0,964250,001,2023-09-14_18h43.18.666,orientation discrimination task,2023.1.3,60.067347505375984,
188,0,188,0,275.4735220000148,276.46363170002587,276.48029810003936,up,0,0.05716209998354316,None,-4,964250,001,2023-09-14_18h43.18.666,orientation discrimination task,2023.1.3,60.067347505375984,
189,0,189,0,276.55355750001036,277.54577039997093,277.56246859999374,up,0,0.05217320006340742,None,-2,964250,001,2023-09-14_18h43.18.666,orientation discrimination task,2023.1.3,60.067347505375984,
190,0,190,0,277.6288780999603,278.628219599952,278.628219599952,up,1,0.09438800008501858,None,0,964250,001,2023-09-14_18h43.18.666,orientation discrimination task,2023.1.3,60.067347505375984,
191,0,191,0,278.7444494999945,279.7437154999934,279.7437154999934,down,1,0.15269829996395856,None,1,964250,001,2023-09-14_18h43.18.666,orientation discrimination task,2023.1.3,60.067347505375984,
192,0,192,0,279.9275262999581,280.92592319997493,280.94271580001805,up,1,0.20973499992396683,None,0,964250,001,2023-09-14_18h43.18.666,orientation discrimination task,2023.1.3,60.067347505375984,
193,0,193,0,281.15886039996985,282.15810879995115,282.15810879995115,up,0,0.1183356000110507,None,-3,964250,001,2023-09-14_18h43.18.666,orientation discrimination task,2023.1.3,60.067347505375984,
194,0,194,0,282.3079038000433,283.3070737000089,283.3070737000089,up,1,0.3321396999526769,None,0,964250,001,2023-09-14_18h43.18.666,orientation discrimination task,2023.1.3,60.067347505375984,
195,0,195,0,283.656548100058,284.65598050004337,284.65598050004337,up,0,0.21897270006593317,None,1,964250,001,2023-09-14_18h43.18.666,orientation discrimination task,2023.1.3,60.067347505375984,
196,0,196,0,284.91481400001794,285.9048429999966,285.9215315999463,up,1,0.5033689000410959,None,0,964250,001,2023-09-14_18h43.18.666,orientation discrimination task,2023.1.3,60.067347505375984,
197,0,197,0,286.4531450000359,287.4535019999603,287.4535019999603,up,0,0.16627960000187159,None,2,964250,001,2023-09-14_18h43.18.666,orientation discrimination task,2023.1.3,60.067347505375984,
198,0,198,0,287.64694380003493,288.6357705000555,288.6524541999679,down,1,0.6723157999804243,None,2,964250,001,2023-09-14_18h43.18.666,orientation discrimination task,2023.1.3,60.067347505375984,
199,0,199,0,289.3493315000087,290.3510675999569,290.3510675999569,down,0,0.4113168000476435,None,0,964250,001,2023-09-14_18h43.18.666,orientation discrimination task,2023.1.3,60.067347505375984,
200,0,200,0,290.7983882999979,291.79947119997814,291.79947119997814,up,0,0.035254199989140034,None,3,964250,001,2023-09-14_18h43.18.666,orientation discrimination task,2023.1.3,60.067347505375984,
201,0,201,0,291.87901889998466,292.86513489997014,292.8817677999614,down,1,3.12146809999831,None,-5,964250,001,2023-09-14_18h43.18.666,orientation discrimination task,2023.1.3,60.067347505375984,
202,0,202,0,296.01563649997115,297.011078099953,297.0278653999558,up,1,0.305906799971126,None,0,964250,001,2023-09-14_18h43.18.666,orientation discrimination task,2023.1.3,60.067347505375984,
203,0,203,0,297.3480440999847,298.3431364999851,298.3597468000371,down,0,0.08090039994567633,None,0,964250,001,2023-09-14_18h43.18.666,orientation discrimination task,2023.1.3,60.067347505375984,
204,0,204,0,298.44732709997334,299.4421204000246,299.45872730005067,down,1,0.2542255000444129,None,-5,964250,001,2023-09-14_18h43.18.666,orientation discrimination task,2023.1.3,60.067347505375984,
205,0,205,0,299.74364859994967,300.7410228999797,300.7577227000147,down,0,0.20648579997941852,None,0,964250,001,2023-09-14_18h43.18.666,orientation discrimination task,2023.1.3,60.067347505375984,
206,0,206,0,300.98606609995477,301.97330339998007,301.99007820000406,down,1,0.14343169995117933,None,-4,964250,001,2023-09-14_18h43.18.666,orientation discrimination task,2023.1.3,60.067347505375984,
207,0,207,0,302.1739860000089,303.17218670004513,303.1889793999726,down,1,0.06682379997801036,None,-4,964250,001,2023-09-14_18h43.18.666,orientation discrimination task,2023.1.3,60.067347505375984,
208,0,208,0,303.2685028000269,304.25445650005713,304.27125290001277,down,1,0.05585710005834699,None,-5,964250,001,2023-09-14_18h43.18.666,orientation discrimination task,2023.1.3,60.067347505375984,
209,0,209,0,304.3479717000155,305.3369296999881,305.3534870999865,down,0,0.03447109996341169,None,0,964250,001,2023-09-14_18h43.18.666,orientation discrimination task,2023.1.3,60.067347505375984,
210,0,210,0,305.412850099965,306.40217879996635,306.41892640001606,down,1,0.23660830000881106,None,2,964250,001,2023-09-14_18h43.18.666,orientation discrimination task,2023.1.3,60.067347505375984,
211,0,211,0,306.669253100059,307.6680317999562,307.6845694000367,down,0,0.3216526999603957,None,0,964250,001,2023-09-14_18h43.18.666,orientation discrimination task,2023.1.3,60.067347505375984,
212,0,212,0,308.02688819996547,309.0167106000008,309.03328009997495,down,1,0.11807049997150898,None,-4,964250,001,2023-09-14_18h43.18.666,orientation discrimination task,2023.1.3,60.067347505375984,
213,0,213,0,309.17717819998506,310.1653794000158,310.18198850005865,down,0,0.3176036999793723,None,0,964250,001,2023-09-14_18h43.18.666,orientation discrimination task,2023.1.3,60.067347505375984,
214,0,214,0,310.5154101999942,311.5142453999724,311.5309743999969,down,1,0.017954699927940965,None,-3,964250,001,2023-09-14_18h43.18.666,orientation discrimination task,2023.1.3,60.067347505375984,
215,0,215,0,311.57280620001256,312.56343470001593,312.5796999000013,down,0,0.27344939997419715,None,0,964250,001,2023-09-14_18h43.18.666,orientation discrimination task,2023.1.3,60.067347505375984,
216,0,216,0,312.87381520005874,313.8622936999891,313.87883419997524,down,0,0.28547379991505295,None,0,964250,001,2023-09-14_18h43.18.666,orientation discrimination task,2023.1.3,60.067347505375984,
217,0,217,0,314.19292479997966,315.19427830004133,315.19427830004133,down,0,0.22445009998045862,None,0,964250,001,2023-09-14_18h43.18.666,orientation discrimination task,2023.1.3,60.067347505375984,
218,0,218,0,315.4539466999704,316.4429261999903,316.4595721999649,down,0,0.21701470005791634,None,0,964250,001,2023-09-14_18h43.18.666,orientation discrimination task,2023.1.3,60.067347505375984,
219,0,219,0,316.6997739999788,317.6920308000408,317.70859900000505,up,0,0.2710668999934569,None,-5,964250,001,2023-09-14_18h43.18.666,orientation discrimination task,2023.1.3,60.067347505375984,
220,0,220,0,318.00510840001516,318.99068779998925,319.00753319996875,up,0,0.20220770000014454,None,-5,964250,001,2023-09-14_18h43.18.666,orientation discrimination task,2023.1.3,60.067347505375984,
221,0,221,0,319.23420489998534,320.2229430000298,320.23956340004224,up,1,0.19123250001575798,None,0,964250,001,2023-09-14_18h43.18.666,orientation discrimination task,2023.1.3,60.067347505375984,
222,0,222,0,320.4504579999484,321.4385015000589,321.45512639998924,up,0,0.21912170003633946,None,1,964250,001,2023-09-14_18h43.18.666,orientation discrimination task,2023.1.3,60.067347505375984,
223,0,223,0,321.6977464000229,322.68729859997984,322.70399830001406,up,0,0.23820729996077716,None,-3,964250,001,2023-09-14_18h43.18.666,orientation discrimination task,2023.1.3,60.067347505375984,
224,0,224,0,322.9640890000155,323.9527463000268,323.96942259999923,up,0,0.23611509997863322,None,-5,964250,001,2023-09-14_18h43.18.666,orientation discrimination task,2023.1.3,60.067347505375984,
225,0,225,0,324.2276637000032,325.21842229994945,325.23496989998966,up,0,0.24845479999203235,None,-2,964250,001,2023-09-14_18h43.18.666,orientation discrimination task,2023.1.3,60.067347505375984,
226,0,226,0,325.49430869997013,326.4837112999521,326.50037400005385,up,0,0.1846903000259772,None,4,964250,001,2023-09-14_18h43.18.666,orientation discrimination task,2023.1.3,60.067347505375984,
227,0,227,0,326.7093434999697,327.6992736000102,327.7159008999588,up,1,0.2344671000028029,None,0,964250,001,2023-09-14_18h43.18.666,orientation discrimination task,2023.1.3,60.067347505375984,
228,0,228,0,327.97665660001803,328.96479160001036,328.98142379999626,up,0,0.1897492998978123,None,2,964250,001,2023-09-14_18h43.18.666,orientation discrimination task,2023.1.3,60.067347505375984,
229,0,229,0,329.1924183999654,330.1798846999882,330.19638059998397,up,0,0.19675600004848093,None,2,964250,001,2023-09-14_18h43.18.666,orientation discrimination task,2023.1.3,60.067347505375984,
230,0,230,0,330.4055938000092,331.39573109999765,331.41238710004836,up,0,0.19849179999437183,None,2,964250,001,2023-09-14_18h43.18.666,orientation discrimination task,2023.1.3,60.067347505375984,
231,0,231,0,331.62049130001105,332.61132310004905,332.6279731000541,up,0,0.1965906999539584,None,-4,964250,001,2023-09-14_18h43.18.666,orientation discrimination task,2023.1.3,60.067347505375984,
232,0,232,0,332.8376163999783,333.8267922999803,333.8434066999471,up,0,0.1862914999946952,None,2,964250,001,2023-09-14_18h43.18.666,orientation discrimination task,2023.1.3,60.067347505375984,
233,0,233,0,334.0529818000505,335.04228789999615,335.0589633999625,up,1,0.18452759995125234,None,0,964250,001,2023-09-14_18h43.18.666,orientation discrimination task,2023.1.3,60.067347505375984,
234,0,234,0,335.26703600003384,336.25789470004383,336.2744904999854,up,1,0.21883189992513508,None,0,964250,001,2023-09-14_18h43.18.666,orientation discrimination task,2023.1.3,60.067347505375984,
235,0,235,0,336.5162090000231,337.50677129998803,337.5233117999742,up,0,0.19100270001217723,None,-3,964250,001,2023-09-14_18h43.18.666,orientation discrimination task,2023.1.3,60.067347505375984,
236,0,236,0,337.74372370005585,338.7389928000048,338.7556350999512,up,0,0.17421549989376217,None,-2,964250,001,2023-09-14_18h43.18.666,orientation discrimination task,2023.1.3,60.067347505375984,
237,0,237,0,338.9503855999792,339.93790450005326,339.9545011000009,up,1,0.17025209998246282,None,0,964250,001,2023-09-14_18h43.18.666,orientation discrimination task,2023.1.3,60.067347505375984,
238,0,238,0,340.1471411000239,341.1367654999485,341.1533239999553,up,0,0.1854530000127852,None,1,964250,001,2023-09-14_18h43.18.666,orientation discrimination task,2023.1.3,60.067347505375984,
239,0,239,0,341.36352709995117,342.35213080001995,342.36901909997687,down,0,0.13633490004576743,None,0,964250,001,2023-09-14_18h43.18.666,orientation discrimination task,2023.1.3,60.067347505375984,
240,0,240,0,342.5280075999908,343.51784420001786,343.5344528000569,down,1,0.17737230006605387,None,-3,964250,001,2023-09-14_18h43.18.666,orientation discrimination task,2023.1.3,60.067347505375984,
241,0,241,0,343.72870440001134,344.7167401999468,344.7333512000041,down,0,0.22021820000372827,None,0,964250,001,2023-09-14_18h43.18.666,orientation discrimination task,2023.1.3,60.067347505375984,
242,0,242,0,344.9790226999903,345.96564259997103,345.9822410000488,down,0,0.0308883999241516,None,0,964250,001,2023-09-14_18h43.18.666,orientation discrimination task,2023.1.3,60.067347505375984,
243,0,243,0,346.0253879999509,347.0146420999663,347.0312305999687,down,0,0.1051115000154823,None,0,964250,001,2023-09-14_18h43.18.666,orientation discrimination task,2023.1.3,60.067347505375984,
244,0,244,0,347.15833929996006,348.14684910001233,348.1635313000297,up,0,0.026868299930356443,None,4,964250,001,2023-09-14_18h43.18.666,orientation discrimination task,2023.1.3,60.067347505375984,
245,0,245,0,348.20565939997323,349.19578429998364,349.2124750999501,down,0,0.0028077000752091408,None,0,964250,001,2023-09-14_18h43.18.666,orientation discrimination task,2023.1.3,60.067347505375984,
246,0,246,0,349.23724879999645,350.22807279997505,350.2447885000147,down,0,0.18866430001799017,None,0,964250,001,2023-09-14_18h43.18.666,orientation discrimination task,2023.1.3,60.067347505375984,
247,0,247,0,350.4543422999559,351.44371969997883,351.4603827999672,up,0,1.547954700072296,None,3,964250,001,2023-09-14_18h43.18.666,orientation discrimination task,2023.1.3,60.067347505375984,
248,0,248,0,353.0238609999651,354.024472399964,354.024472399964,down,0,0.012529399944469333,None,0,964250,001,2023-09-14_18h43.18.666,orientation discrimination task,2023.1.3,60.067347505375984,
249,0,249,0,354.0596775000449,355.0568565999856,355.0734627000056,up,1,0.193120599957183,None,0,964250,001,2023-09-14_18h43.18.666,orientation discrimination task,2023.1.3,60.067347505375984,
250,0,250,0,355.2756942999549,356.27234190003946,356.2889732000185,up,1,0.15746580006089061,None,0,964250,001,2023-09-14_18h43.18.666,orientation discrimination task,2023.1.3,60.067347505375984,
251,0,251,0,356.4578571000602,357.45455819997005,357.4712032000534,down,1,0.044970400049351156,None,-4,964250,001,2023-09-14_18h43.18.666,orientation discrimination task,2023.1.3,60.067347505375984,
252,0,252,0,357.5239728000015,358.5202612000285,358.536854499951,up,1,0.15076820005197078,None,0,964250,001,2023-09-14_18h43.18.666,orientation discrimination task,2023.1.3,60.067347505375984,
253,0,253,0,358.6903949000407,359.6858484999975,359.70240539999213,up,1,0.11541480000596493,None,0,964250,001,2023-09-14_18h43.18.666,orientation discrimination task,2023.1.3,60.067347505375984,
254,0,254,0,359.82181220001075,360.81805829994846,360.8347776000155,down,1,0.13882280001416802,None,-5,964250,001,2023-09-14_18h43.18.666,orientation discrimination task,2023.1.3,60.067347505375984,
255,0,255,0,360.9864241000032,361.98375110002235,362.0006237999769,down,1,0.5652383998967707,None,1,964250,001,2023-09-14_18h43.18.666,orientation discrimination task,2023.1.3,60.067347505375984,
256,0,256,0,362.56938350002747,363.5655415999936,363.5821308000013,down,0,0.8720114999450743,None,0,964250,001,2023-09-14_18h43.18.666,orientation discrimination task,2023.1.3,60.067347505375984,
257,0,257,0,364.48536120005883,365.4808185000438,365.49753569997847,up,0,0.28596060001291335,None,2,964250,001,2023-09-14_18h43.18.666,orientation discrimination task,2023.1.3,60.067347505375984,
258,0,258,0,365.810756699997,366.8127978000557,366.8127978000557,up,0,0.06304139993153512,None,2,964250,001,2023-09-14_18h43.18.666,orientation discrimination task,2023.1.3,60.067347505375984,
259,0,259,0,366.91012999997474,367.91174779995345,367.91174779995345,down,0,0.08855809993110597,None,0,964250,001,2023-09-14_18h43.18.666,orientation discrimination task,2023.1.3,60.067347505375984,
260,0,260,0,368.04187580000143,369.04405629995745,369.04405629995745,down,0,0.03012669994495809,None,0,964250,001,2023-09-14_18h43.18.666,orientation discrimination task,2023.1.3,60.067347505375984,
261,0,261,0,369.1044048999902,370.0930422999663,370.1097050999524,up,1,0.03859020001254976,None,0,964250,001,2023-09-14_18h43.18.666,orientation discrimination task,2023.1.3,60.067347505375984,
262,0,262,0,370.16995020001195,371.15879580006003,371.17548149998765,up,1,0.2934218000154942,None,0,964250,001,2023-09-14_18h43.18.666,orientation discrimination task,2023.1.3,60.067347505375984,
263,0,263,0,371.4864325999515,372.4743167000124,372.49084740004037,up,0,0.5139374000718817,None,-2,964250,001,2023-09-14_18h43.18.666,orientation discrimination task,2023.1.3,60.067347505375984,
264,0,264,0,373.0195760000497,374.0061392999487,374.02288709999993,up,1,0.003297199960798025,None,0,964250,001,2023-09-14_18h43.18.666,orientation discrimination task,2023.1.3,60.067347505375984,
265,0,265,0,374.0491046999814,375.03826960001606,375.05491379997693,up,0,0.24913430004380643,None,-3,964250,001,2023-09-14_18h43.18.666,orientation discrimination task,2023.1.3,60.067347505375984,
266,0,266,0,375.3149377000518,376.30393890000414,376.3205453000264,up,0,0.20140259992331266,None,-5,964250,001,2023-09-14_18h43.18.666,orientation discrimination task,2023.1.3,60.067347505375984,
267,0,267,0,376.5461523999693,377.53609109995887,377.5527660000371,down,1,0.032795500010252,None,-5,964250,001,2023-09-14_18h43.18.666,orientation discrimination task,2023.1.3,60.067347505375984,
268,0,268,0,377.59737249999307,378.58521679998375,378.6015608999878,up,1,0.09519989998079836,None,0,964250,001,2023-09-14_18h43.18.666,orientation discrimination task,2023.1.3,60.067347505375984,
269,0,269,0,378.7135700000217,379.7007501999615,379.7174217000138,down,1,0.036742900032550097,None,-3,964250,001,2023-09-14_18h43.18.666,orientation discrimination task,2023.1.3,60.067347505375984,
270,0,270,0,379.77766390005127,380.76650150003843,380.7831883999752,up,0,0.006369000067934394,None,-5,964250,001,2023-09-14_18h43.18.666,orientation discrimination task,2023.1.3,60.067347505375984,
271,0,271,0,380.8101839000592,381.7987964999629,381.8154026999837,up,1,0.6853469000197947,None,0,964250,001,2023-09-14_18h43.18.666,orientation discrimination task,2023.1.3,60.067347505375984,
272,0,272,0,382.52800140006,383.5138620999642,383.5304954999592,up,0,0.08851020003203303,None,3,964250,001,2023-09-14_18h43.18.666,orientation discrimination task,2023.1.3,60.067347505375984,
273,0,273,0,383.6414909999585,384.6295641999459,384.64613809995353,up,1,0.05726370005868375,None,0,964250,001,2023-09-14_18h43.18.666,orientation discrimination task,2023.1.3,60.067347505375984,
274,0,274,0,384.7227168000536,385.7122865000274,385.72844099998474,up,1,0.0057761999778449535,None,0,964250,001,2023-09-14_18h43.18.666,orientation discrimination task,2023.1.3,60.067347505375984,
275,0,275,0,385.75420550000854,386.74420309998095,386.76090290001594,down,1,0.2498359999153763,None,-4,964250,001,2023-09-14_18h43.18.666,orientation discrimination task,2023.1.3,60.067347505375984,
276,0,276,0,387.02188550005667,388.01091189996805,388.0262084000278,down,1,0.017881000065244734,None,-3,964250,001,2023-09-14_18h43.18.666,orientation discrimination task,2023.1.3,60.067347505375984,
277,0,277,0,388.06926629994996,389.0586115999613,389.07527759997174,down,1,0.07281679997686297,None,1,964250,001,2023-09-14_18h43.18.666,orientation discrimination task,2023.1.3,60.067347505375984,
278,0,278,0,389.1670424999902,390.15762600000016,390.17431360005867,down,0,0.29177349992096424,None,0,964250,001,2023-09-14_18h43.18.666,orientation discrimination task,2023.1.3,60.067347505375984,
279,0,279,0,390.4839515000349,391.47312670003157,391.48989900003653,down,1,0.24450150004122406,None,3,964250,001,2023-09-14_18h43.18.666,orientation discrimination task,2023.1.3,60.067347505375984,
280,0,280,0,391.7499583000317,392.73852709995117,392.75533890002407,down,0,0.22230929997749627,None,0,964250,001,2023-09-14_18h43.18.666,orientation discrimination task,2023.1.3,60.067347505375984,
281,0,281,0,392.9993569999933,393.9873807999538,394.0040815999964,down,0,2.5904119999613613,None,0,964250,001,2023-09-14_18h43.18.666,orientation discrimination task,2023.1.3,60.067347505375984,
282,0,282,0,396.62870819994714,397.6175771000562,397.63409069995396,down,0,0.13792899996042252,None,0,964250,001,2023-09-14_18h43.18.666,orientation discrimination task,2023.1.3,60.067347505375984,
283,0,283,0,397.8054664999945,398.7996473000385,398.8169024999952,down,0,0.02640219999011606,None,0,964250,001,2023-09-14_18h43.18.666,orientation discrimination task,2023.1.3,60.067347505375984,
284,0,284,0,398.86202969995793,399.8486093999818,399.86522539996076,down,0,0.03235710004810244,None,0,964250,001,2023-09-14_18h43.18.666,orientation discrimination task,2023.1.3,60.067347505375984,
285,0,285,0,399.9084817999974,400.89764960005414,400.91424109996296,up,1,0.27000100002624094,None,0,964250,001,2023-09-14_18h43.18.666,orientation discrimination task,2023.1.3,60.067347505375984,
286,0,286,0,401.20744350005407,402.19634929997846,402.2129958999576,up,0,0.03759369999170303,None,-3,964250,001,2023-09-14_18h43.18.666,orientation discrimination task,2023.1.3,60.067347505375984,
287,0,287,0,402.2720868999604,403.262063400005,403.27866800001357,up,1,0.10837029991671443,None,0,964250,001,2023-09-14_18h43.18.666,orientation discrimination task,2023.1.3,60.067347505375984,
288,0,288,0,403.40631969994865,404.3943734000204,404.4111034000525,down,1,0.0033562000608071685,None,2,964250,001,2023-09-14_18h43.18.666,orientation discrimination task,2023.1.3,60.067347505375984,
289,0,289,0,404.4364712999668,405.4269978000084,405.44310000003316,up,1,0.18708299996796995,None,0,964250,001,2023-09-14_18h43.18.666,orientation discrimination task,2023.1.3,60.067347505375984,
290,0,290,0,405.6427178999875,406.6419880000176,406.6419880000176,up,0,0.12476190004963428,None,-2,964250,001,2023-09-14_18h43.18.666,orientation discrimination task,2023.1.3,60.067347505375984,
291,0,291,0,406.7916758999927,407.7912597999675,407.7912597999675,down,1,0.2386978999711573,None,3,964250,001,2023-09-14_18h43.18.666,orientation discrimination task,2023.1.3,60.067347505375984,
292,0,292,0,408.06745059997775,409.05676599999424,409.07334490003996,down,0,0.04865590005647391,None,0,964250,001,2023-09-14_18h43.18.666,orientation discrimination task,2023.1.3,60.067347505375984,
293,0,293,0,409.13514969998505,410.12235540000256,410.13901230006013,down,0,0.10233959998004138,None,0,964250,001,2023-09-14_18h43.18.666,orientation discrimination task,2023.1.3,60.067347505375984,
294,0,294,0,410.264327300014,411.2545961999567,411.2712375000119,down,0,0.2610446000471711,None,0,964250,001,2023-09-14_18h43.18.666,orientation discrimination task,2023.1.3,60.067347505375984,
295,0,295,0,411.5545242000371,412.5533842999721,412.570075500058,up,0,0.18966009991709143,None,1,964250,001,2023-09-14_18h43.18.666,orientation discrimination task,2023.1.3,60.067347505375984,
296,0,296,0,412.7807766000042,413.76941880001687,413.7855479000136,up,0,0.11458509997464716,None,1,964250,001,2023-09-14_18h43.18.666,orientation discrimination task,2023.1.3,60.067347505375984,
297,0,297,0,413.9120481000282,414.9012179999845,414.9178470999468,up,1,0.16070189990568906,None,0,964250,001,2023-09-14_18h43.18.666,orientation discrimination task,2023.1.3,60.067347505375984,
298,0,298,0,415.0944108000258,416.0833921000594,416.1001265000086,up,1,1.0507623000303283,None,0,964250,001,2023-09-14_18h43.18.666,orientation discrimination task,2023.1.3,60.067347505375984,
299,0,299,0,417.17522670002654,418.16493319999427,418.1815255000256,down,1,0.26480149989947677,None,-4,964250,001,2023-09-14_18h43.18.666,orientation discrimination task,2023.1.3,60.067347505375984,
